onset,duration,trial_type,choice,stim_conflict,behav_unlabeled,Rsponse,Stimulus,cond,subject,run,RT,ix_BOLD,rt
0,0,congruent_incorrect,0,1,0,2,NaN,2,1,1,NaN,-4,NaN
0,1,incongruent_incorrect,0,1,0,2,692,4,1,1,0.692,-3,0.692
2.5,1,incongruent_correct,1,1,1,2,624,3,1,1,0.624,-2,0.624
5,1,congruent_correct,1,0,1,1,1477,1,1,1,1.477,-1,1.477
7.5,1,congruent_correct,1,0,1,1,578,1,1,1,0.578,0,0.578
10,1,incongruent_correct,1,1,1,2,510,3,1,1,0.51,1,0.51
12.5,1,incongruent_correct,1,1,1,2,468,3,1,1,0.468,2,0.468
20,1,incongruent_correct,1,1,1,2,609,3,1,1,0.609,3,0.609
22.5,1,incongruent_correct,1,1,1,2,462,3,1,1,0.462,4,0.462
25,1,congruent_correct,1,0,1,1,518,1,1,1,0.518,5,0.518
27.5,1,congruent_correct,1,0,1,1,343,1,1,1,0.343,6,0.343
30,1,congruent_correct,1,0,1,1,483,1,1,1,0.483,7,0.483
32.5,1,congruent_correct,1,0,1,1,345,1,1,1,0.345,8,0.345
45,1,congruent_correct,1,0,1,1,512,1,1,1,0.512,9,0.512
47.5,1,congruent_correct,1,0,1,1,436,1,1,1,0.436,10,0.436
50,1,incongruent_correct,1,1,1,2,490,3,1,1,0.49,11,0.49
52.5,1,incongruent_correct,1,1,1,2,383,3,1,1,0.383,12,0.383
55,1,congruent_correct,1,0,1,1,515,1,1,1,0.515,13,0.515
57.5,1,incongruent_correct,1,1,1,2,423,3,1,1,0.423,14,0.423
65,1,congruent_correct,1,0,1,1,517,1,1,1,0.517,15,0.517
67.5,1,incongruent_correct,1,1,1,2,425,3,1,1,0.425,16,0.425
70,1,incongruent_correct,1,1,1,2,382,3,1,1,0.382,17,0.382
72.5,1,incongruent_correct,1,1,1,2,412,3,1,1,0.412,18,0.412
75,1,congruent_correct,1,0,1,1,447,1,1,1,0.447,19,0.447
77.5,1,congruent_correct,1,0,1,1,396,1,1,1,0.396,20,0.396
80,1,congruent_correct,1,0,1,1,458,1,1,1,0.458,21,0.458
82.5,1,congruent_correct,1,0,1,1,311,1,1,1,0.311,22,0.311
85,1,congruent_correct,1,0,1,1,330,1,1,1,0.33,23,0.33
87.5,1,incongruent_incorrect,0,1,0,2,384,4,1,1,0.384,24,0.384
90,1,incongruent_correct,1,1,1,2,467,3,1,1,0.467,25,0.467
92.5,1,congruent_correct,1,0,1,1,497,1,1,1,0.497,26,0.497
95,1,incongruent_correct,1,1,1,2,444,3,1,1,0.444,27,0.444
97.5,1,incongruent_correct,1,1,1,2,402,3,1,1,0.402,28,0.402
100,1,incongruent_correct,1,1,1,2,358,3,1,1,0.358,29,0.358
102.5,1,incongruent_correct,1,1,1,2,370,3,1,1,0.37,30,0.37
105,1,congruent_correct,1,0,1,1,417,1,1,1,0.417,31,0.417
107.5,1,congruent_correct,1,0,1,1,356,1,1,1,0.356,32,0.356
110,1,incongruent_correct,1,1,1,2,413,3,1,1,0.413,33,0.413
112.5,1,incongruent_correct,1,1,1,2,414,3,1,1,0.414,34,0.414
120,1,incongruent_correct,1,1,1,2,499,3,1,1,0.499,35,0.499
122.5,1,congruent_correct,1,0,1,1,392,1,1,1,0.392,36,0.392
125,1,congruent_correct,1,0,1,1,317,1,1,1,0.317,37,0.317
127.5,1,congruent_correct,1,0,1,1,353,1,1,1,0.353,38,0.353
135,1,incongruent_correct,1,1,1,2,502,3,1,1,0.502,39,0.502
137.5,1,congruent_correct,1,0,1,1,579,1,1,1,0.579,40,0.579
140,1,congruent_correct,1,0,1,1,375,1,1,1,0.375,41,0.375
142.5,1,incongruent_correct,1,1,1,2,398,3,1,1,0.398,42,0.398
145,1,congruent_correct,1,0,1,1,355,1,1,1,0.355,43,0.355
147.5,1,incongruent_correct,1,1,1,2,390,3,1,1,0.39,44,0.39
150,1,congruent_correct,1,0,1,1,388,1,1,1,0.388,45,0.388
152.5,1,congruent_correct,1,0,1,1,337,1,1,1,0.337,46,0.337
155,1,congruent_correct,1,0,1,1,429,1,1,1,0.429,47,0.429
157.5,1,incongruent_correct,1,1,1,2,426,3,1,1,0.426,48,0.426
160,1,incongruent_correct,1,1,1,2,374,3,1,1,0.374,49,0.374
162.5,1,congruent_correct,1,0,1,1,386,1,1,1,0.386,50,0.386
170,1,incongruent_correct,1,1,1,2,465,3,1,1,0.465,51,0.465
172.5,1,congruent_correct,1,0,1,1,365,1,1,1,0.365,52,0.365
175,1,congruent_correct,1,0,1,1,330,1,1,1,0.33,53,0.33
177.5,1,incongruent_correct,1,1,1,2,406,3,1,1,0.406,54,0.406
185,1,incongruent_correct,1,1,1,2,556,3,1,1,0.556,55,0.556
187.5,1,incongruent_correct,1,1,1,2,497,3,1,1,0.497,56,0.497
190,1,incongruent_correct,1,1,1,2,407,3,1,1,0.407,57,0.407
192.5,1,incongruent_correct,1,1,1,2,426,3,1,1,0.426,58,0.426
195,1,congruent_correct,1,0,1,1,552,1,1,1,0.552,59,0.552
197.5,1,congruent_correct,1,0,1,1,355,1,1,1,0.355,60,0.355
200,1,congruent_correct,1,0,1,1,369,1,1,1,0.369,61,0.369
202.5,1,incongruent_correct,1,1,1,2,397,3,1,1,0.397,62,0.397
205,1,incongruent_correct,1,1,1,2,489,3,1,1,0.489,63,0.489
207.5,1,incongruent_correct,1,1,1,2,407,3,1,1,0.407,64,0.407
215,1,incongruent_correct,1,1,1,2,446,3,1,1,0.446,65,0.446
217.5,1,incongruent_correct,1,1,1,2,385,3,1,1,0.385,66,0.385
220,1,congruent_correct,1,0,1,1,893,1,1,1,0.893,67,0.893
222.5,1,incongruent_correct,1,1,1,2,426,3,1,1,0.426,68,0.426
225,1,incongruent_correct,1,1,1,2,400,3,1,1,0.4,69,0.4
227.5,1,congruent_correct,1,0,1,1,667,1,1,1,0.667,70,0.667
230,1,congruent_correct,1,0,1,1,400,1,1,1,0.4,71,0.4
232.5,1,congruent_correct,1,0,1,1,448,1,1,1,0.448,72,0.448
235,1,incongruent_incorrect,0,1,0,2,353,4,1,1,0.353,73,0.353
237.5,1,congruent_correct,1,0,1,1,325,1,1,1,0.325,74,0.325
240,1,incongruent_correct,1,1,1,2,412,3,1,1,0.412,75,0.412
242.5,1,congruent_correct,1,0,1,1,369,1,1,1,0.369,76,0.369
245,1,congruent_correct,1,0,1,1,493,1,1,1,0.493,77,0.493
247.5,1,incongruent_correct,1,1,1,2,474,3,1,1,0.474,78,0.474
250,1,congruent_correct,1,0,1,1,574,1,1,1,0.574,79,0.574
252.5,1,congruent_correct,1,0,1,1,339,1,1,1,0.339,80,0.339
255,1,incongruent_correct,1,1,1,2,551,3,1,1,0.551,81,0.551
257.5,1,congruent_correct,1,0,1,1,365,1,1,1,0.365,82,0.365
270,1,incongruent_incorrect,0,1,0,2,549,4,1,1,0.549,83,0.549
272.5,1,congruent_correct,1,0,1,1,408,1,1,1,0.408,84,0.408
275,1,congruent_correct,1,0,1,1,436,1,1,1,0.436,85,0.436
277.5,1,incongruent_correct,1,1,1,2,441,3,1,1,0.441,86,0.441
280,1,incongruent_correct,1,1,1,2,454,3,1,1,0.454,87,0.454
282.5,1,congruent_correct,1,0,1,1,395,1,1,1,0.395,88,0.395
290,1,congruent_correct,1,0,1,1,489,1,1,1,0.489,89,0.489
292.5,1,incongruent_correct,1,1,1,2,519,3,1,1,0.519,90,0.519
295,1,incongruent_correct,1,1,1,2,506,3,1,1,0.506,91,0.506
297.5,1,congruent_correct,1,0,1,1,399,1,1,1,0.399,92,0.399
0,1,congruent_correct,1,0,1,1,494,1,1,2,0.494,-3,0.494
0,0,congruent_incorrect,0,0,1,1,NaN,2,1,2,NaN,-2,NaN
2.5,1,congruent_correct,1,0,1,1,363,1,1,2,0.363,-1,0.363
10,1,incongruent_correct,1,1,1,2,714,3,1,2,0.714,0,0.714
12.5,1,incongruent_correct,1,1,1,2,471,3,1,2,0.471,1,0.471
15,1,incongruent_correct,1,1,1,2,475,3,1,2,0.475,2,0.475
17.5,1,incongruent_correct,1,1,1,2,447,3,1,2,0.447,3,0.447
25,1,congruent_correct,1,0,1,1,534,1,1,2,0.534,4,0.534
27.5,1,congruent_correct,1,0,1,1,377,1,1,2,0.377,5,0.377
30,1,incongruent_correct,1,1,1,2,446,3,1,2,0.446,6,0.446
32.5,1,congruent_correct,1,0,1,1,459,1,1,2,0.459,7,0.459
35,1,incongruent_correct,1,1,1,2,423,3,1,2,0.423,8,0.423
37.5,1,congruent_correct,1,0,1,1,438,1,1,2,0.438,9,0.438
40,1,congruent_correct,1,0,1,1,505,1,1,2,0.505,10,0.505
42.5,1,incongruent_correct,1,1,1,2,479,3,1,2,0.479,11,0.479
45,1,incongruent_correct,1,1,1,2,395,3,1,2,0.395,12,0.395
47.5,1,incongruent_correct,1,1,1,2,503,3,1,2,0.503,13,0.503
50,1,incongruent_correct,1,1,1,2,549,3,1,2,0.549,14,0.549
52.5,1,incongruent_correct,1,1,1,2,432,3,1,2,0.432,15,0.432
60,1,congruent_correct,1,0,1,1,503,1,1,2,0.503,16,0.503
62.5,1,congruent_correct,1,0,1,1,355,1,1,2,0.355,17,0.355
65,1,congruent_correct,1,0,1,1,395,1,1,2,0.395,18,0.395
67.5,1,congruent_correct,1,0,1,1,453,1,1,2,0.453,19,0.453
75,1,congruent_correct,1,0,1,1,475,1,1,2,0.475,20,0.475
77.5,1,congruent_correct,1,0,1,1,319,1,1,2,0.319,21,0.319
80,1,congruent_correct,1,0,1,1,476,1,1,2,0.476,22,0.476
82.5,1,incongruent_correct,1,1,1,2,522,3,1,2,0.522,23,0.522
85,1,incongruent_correct,1,1,1,2,437,3,1,2,0.437,24,0.437
87.5,1,congruent_correct,1,0,1,1,600,1,1,2,0.6,25,0.6
90,1,incongruent_incorrect,0,1,0,2,670,4,1,2,0.67,26,0.67
92.5,1,congruent_correct,1,0,1,1,588,1,1,2,0.588,27,0.588
95,1,congruent_correct,1,0,1,1,592,1,1,2,0.592,28,0.592
97.5,1,incongruent_correct,1,1,1,2,627,3,1,2,0.627,29,0.627
100,1,congruent_correct,1,0,1,1,393,1,1,2,0.393,30,0.393
102.5,1,incongruent_correct,1,1,1,2,662,3,1,2,0.662,31,0.662
105,1,incongruent_correct,1,1,1,2,635,3,1,2,0.635,32,0.635
107.5,1,incongruent_correct,1,1,1,2,610,3,1,2,0.61,33,0.61
110,1,congruent_correct,1,0,1,1,645,1,1,2,0.645,34,0.645
112.5,1,congruent_correct,1,0,1,1,607,1,1,2,0.607,35,0.607
120,1,congruent_correct,1,0,1,1,647,1,1,2,0.647,36,0.647
122.5,1,congruent_correct,1,0,1,1,372,1,1,2,0.372,37,0.372
125,1,congruent_correct,1,0,1,1,505,1,1,2,0.505,38,0.505
127.5,1,congruent_correct,1,0,1,1,364,1,1,2,0.364,39,0.364
130,1,congruent_correct,1,0,1,1,313,1,1,2,0.313,40,0.313
132.5,1,incongruent_correct,1,1,1,2,543,3,1,2,0.543,41,0.543
135,1,congruent_correct,1,0,1,1,419,1,1,2,0.419,42,0.419
137.5,1,incongruent_correct,1,1,1,2,496,3,1,2,0.496,43,0.496
140,1,congruent_correct,1,0,1,1,356,1,1,2,0.356,44,0.356
142.5,1,incongruent_correct,1,1,1,2,392,3,1,2,0.392,45,0.392
150,1,incongruent_correct,1,1,1,2,559,3,1,2,0.559,46,0.559
152.5,1,congruent_correct,1,0,1,1,532,1,1,2,0.532,47,0.532
155,1,incongruent_correct,1,1,1,2,471,3,1,2,0.471,48,0.471
157.5,1,incongruent_correct,1,1,1,2,356,3,1,2,0.356,49,0.356
160,1,incongruent_correct,1,1,1,2,384,3,1,2,0.384,50,0.384
162.5,1,incongruent_correct,1,1,1,2,381,3,1,2,0.381,51,0.381
165,1,incongruent_correct,1,1,1,2,347,3,1,2,0.347,52,0.347
167.5,1,incongruent_correct,1,1,1,2,359,3,1,2,0.359,53,0.359
170,1,incongruent_correct,1,1,1,2,412,3,1,2,0.412,54,0.412
172.5,1,incongruent_correct,1,1,1,2,401,3,1,2,0.401,55,0.401
175,1,congruent_correct,1,0,1,1,694,1,1,2,0.694,56,0.694
177.5,1,congruent_correct,1,0,1,1,356,1,1,2,0.356,57,0.356
185,1,incongruent_correct,1,1,1,2,640,3,1,2,0.64,58,0.64
187.5,1,congruent_correct,1,0,1,1,414,1,1,2,0.414,59,0.414
190,1,congruent_correct,1,0,1,1,481,1,1,2,0.481,60,0.481
192.5,1,incongruent_correct,1,1,1,2,349,3,1,2,0.349,61,0.349
195,1,incongruent_correct,1,1,1,2,402,3,1,2,0.402,62,0.402
197.5,1,incongruent_correct,1,1,1,2,415,3,1,2,0.415,63,0.415
200,1,incongruent_correct,1,1,1,2,428,3,1,2,0.428,64,0.428
202.5,1,congruent_correct,1,0,1,1,400,1,1,2,0.4,65,0.4
210,1,incongruent_correct,1,1,1,2,726,3,1,2,0.726,66,0.726
212.5,1,incongruent_correct,1,1,1,2,339,3,1,2,0.339,67,0.339
215,1,congruent_correct,1,0,1,1,367,1,1,2,0.367,68,0.367
217.5,1,incongruent_correct,1,1,1,2,573,3,1,2,0.573,69,0.573
225,1,congruent_correct,1,0,1,1,521,1,1,2,0.521,70,0.521
227.5,1,congruent_correct,1,0,1,1,383,1,1,2,0.383,71,0.383
230,1,congruent_correct,1,0,1,1,508,1,1,2,0.508,72,0.508
232.5,1,congruent_correct,1,0,1,1,321,1,1,2,0.321,73,0.321
235,1,incongruent_correct,1,1,1,2,436,3,1,2,0.436,74,0.436
237.5,1,congruent_correct,1,0,1,1,433,1,1,2,0.433,75,0.433
240,1,congruent_correct,1,0,1,1,471,1,1,2,0.471,76,0.471
242.5,1,incongruent_correct,1,1,1,2,499,3,1,2,0.499,77,0.499
245,1,incongruent_correct,1,1,1,2,448,3,1,2,0.448,78,0.448
247.5,1,congruent_correct,1,0,1,1,388,1,1,2,0.388,79,0.388
250,1,incongruent_correct,1,1,1,2,425,3,1,2,0.425,80,0.425
252.5,1,congruent_correct,1,0,1,1,408,1,1,2,0.408,81,0.408
260,1,incongruent_correct,1,1,1,2,539,3,1,2,0.539,82,0.539
262.5,1,congruent_correct,1,0,1,1,448,1,1,2,0.448,83,0.448
270,1,congruent_correct,1,0,1,1,511,1,1,2,0.511,84,0.511
272.5,1,congruent_correct,1,0,1,1,483,1,1,2,0.483,85,0.483
275,1,incongruent_correct,1,1,1,2,480,3,1,2,0.48,86,0.48
277.5,1,congruent_correct,1,0,1,1,421,1,1,2,0.421,87,0.421
285,1,congruent_correct,1,0,1,1,418,1,1,2,0.418,88,0.418
287.5,1,incongruent_correct,1,1,1,2,479,3,1,2,0.479,89,0.479
290,1,congruent_correct,1,0,1,1,557,1,1,2,0.557,90,0.557
292.5,1,incongruent_correct,1,1,1,2,535,3,1,2,0.535,91,0.535
295,1,incongruent_correct,1,1,1,2,485,3,1,2,0.485,92,0.485
297.5,1,incongruent_correct,1,1,1,2,466,3,1,2,0.466,93,0.466
0,1,incongruent_correct,1,1,1,2,440,3,2,1,0.44,-3,0.44
2.5,1,incongruent_correct,1,1,1,2,413,3,2,1,0.413,-2,0.413
5,1,congruent_incorrect,0,0,0,1,417,2,2,1,0.417,-1,0.417
7.5,1,congruent_correct,1,0,1,1,374,1,2,1,0.374,0,0.374
10,1,incongruent_correct,1,1,1,2,371,3,2,1,0.371,1,0.371
12.5,1,incongruent_correct,1,1,1,2,382,3,2,1,0.382,2,0.382
20,1,incongruent_correct,1,1,1,2,478,3,2,1,0.478,3,0.478
22.5,1,incongruent_correct,1,1,1,2,345,3,2,1,0.345,4,0.345
25,1,congruent_correct,1,0,1,1,448,1,2,1,0.448,5,0.448
27.5,1,congruent_correct,1,0,1,1,323,1,2,1,0.323,6,0.323
30,1,congruent_correct,1,0,1,1,440,1,2,1,0.44,7,0.44
32.5,1,congruent_correct,1,0,1,1,300,1,2,1,0.3,8,0.3
45,1,congruent_correct,1,0,1,1,420,1,2,1,0.42,9,0.42
47.5,1,congruent_correct,1,0,1,1,298,1,2,1,0.298,10,0.298
50,1,incongruent_correct,1,1,1,2,421,3,2,1,0.421,11,0.421
52.5,1,incongruent_correct,1,1,1,2,305,3,2,1,0.305,12,0.305
55,1,congruent_incorrect,0,0,0,1,399,2,2,1,0.399,13,0.399
57.5,1,incongruent_correct,1,1,1,2,533,3,2,1,0.533,14,0.533
65,1,congruent_incorrect,0,0,0,1,553,2,2,1,0.553,15,0.553
67.5,1,incongruent_correct,1,1,1,2,398,3,2,1,0.398,16,0.398
70,1,incongruent_correct,1,1,1,2,442,3,2,1,0.442,17,0.442
72.5,1,incongruent_correct,1,1,1,2,415,3,2,1,0.415,18,0.415
75,1,congruent_correct,1,0,1,1,484,1,2,1,0.484,19,0.484
77.5,1,congruent_correct,1,0,1,1,400,1,2,1,0.4,20,0.4
80,1,congruent_correct,1,0,1,1,509,1,2,1,0.509,21,0.509
82.5,1,congruent_correct,1,0,1,1,363,1,2,1,0.363,22,0.363
85,1,congruent_correct,1,0,1,1,383,1,2,1,0.383,23,0.383
87.5,1,incongruent_correct,1,1,1,2,707,3,2,1,0.707,24,0.707
90,1,incongruent_correct,1,1,1,2,441,3,2,1,0.441,25,0.441
92.5,1,congruent_correct,1,0,1,1,476,1,2,1,0.476,26,0.476
95,1,incongruent_correct,1,1,1,2,345,3,2,1,0.345,27,0.345
97.5,1,incongruent_correct,1,1,1,2,374,3,2,1,0.374,28,0.374
100,1,incongruent_correct,1,1,1,2,307,3,2,1,0.307,29,0.307
102.5,1,incongruent_correct,1,1,1,2,454,3,2,1,0.454,30,0.454
105,1,congruent_incorrect,0,0,0,1,484,2,2,1,0.484,31,0.484
107.5,1,congruent_correct,1,0,1,1,535,1,2,1,0.535,32,0.535
110,1,incongruent_correct,1,1,1,2,484,3,2,1,0.484,33,0.484
112.5,1,incongruent_correct,1,1,1,2,394,3,2,1,0.394,34,0.394
120,1,incongruent_correct,1,1,1,2,449,3,2,1,0.449,35,0.449
122.5,1,congruent_correct,1,0,1,1,461,1,2,1,0.461,36,0.461
125,1,congruent_correct,1,0,1,1,369,1,2,1,0.369,37,0.369
127.5,1,congruent_correct,1,0,1,1,422,1,2,1,0.422,38,0.422
135,1,incongruent_correct,1,1,1,2,491,3,2,1,0.491,39,0.491
137.5,1,congruent_correct,1,0,1,1,376,1,2,1,0.376,40,0.376
140,1,congruent_correct,1,0,1,1,381,1,2,1,0.381,41,0.381
142.5,1,incongruent_correct,1,1,1,2,417,3,2,1,0.417,42,0.417
145,1,congruent_correct,1,0,1,1,471,1,2,1,0.471,43,0.471
147.5,1,incongruent_correct,1,1,1,2,388,3,2,1,0.388,44,0.388
150,1,congruent_incorrect,0,0,0,1,408,2,2,1,0.408,45,0.408
152.5,1,congruent_correct,1,0,1,1,429,1,2,1,0.429,46,0.429
155,1,congruent_correct,1,0,1,1,377,1,2,1,0.377,47,0.377
157.5,1,incongruent_correct,1,1,1,2,414,3,2,1,0.414,48,0.414
160,1,incongruent_correct,1,1,1,2,330,3,2,1,0.33,49,0.33
162.5,1,congruent_correct,1,0,1,1,351,1,2,1,0.351,50,0.351
170,1,incongruent_correct,1,1,1,2,716,3,2,1,0.716,51,0.716
172.5,1,congruent_correct,1,0,1,1,402,1,2,1,0.402,52,0.402
175,1,congruent_correct,1,0,1,1,397,1,2,1,0.397,53,0.397
177.5,1,incongruent_correct,1,1,1,2,476,3,2,1,0.476,54,0.476
185,1,incongruent_correct,1,1,1,2,657,3,2,1,0.657,55,0.657
187.5,1,incongruent_correct,1,1,1,2,373,3,2,1,0.373,56,0.373
190,1,incongruent_correct,1,1,1,2,418,3,2,1,0.418,57,0.418
192.5,1,incongruent_correct,1,1,1,2,295,3,2,1,0.295,58,0.295
195,1,congruent_correct,1,0,1,1,436,1,2,1,0.436,59,0.436
197.5,1,congruent_correct,1,0,1,1,296,1,2,1,0.296,60,0.296
200,1,congruent_correct,1,0,1,1,404,1,2,1,0.404,61,0.404
202.5,1,incongruent_correct,1,1,1,2,417,3,2,1,0.417,62,0.417
205,1,incongruent_correct,1,1,1,2,350,3,2,1,0.35,63,0.35
207.5,1,incongruent_correct,1,1,1,2,366,3,2,1,0.366,64,0.366
215,1,incongruent_correct,1,1,1,2,537,3,2,1,0.537,65,0.537
217.5,1,incongruent_correct,1,1,1,2,414,3,2,1,0.414,66,0.414
220,1,congruent_correct,1,0,1,1,394,1,2,1,0.394,67,0.394
222.5,1,incongruent_correct,1,1,1,2,423,3,2,1,0.423,68,0.423
225,1,incongruent_correct,1,1,1,2,499,3,2,1,0.499,69,0.499
227.5,1,congruent_correct,1,0,1,1,400,1,2,1,0.4,70,0.4
230,1,congruent_correct,1,0,1,1,364,1,2,1,0.364,71,0.364
232.5,1,congruent_correct,1,0,1,1,305,1,2,1,0.305,72,0.305
235,1,incongruent_correct,1,1,1,2,351,3,2,1,0.351,73,0.351
237.5,1,congruent_correct,1,0,1,1,411,1,2,1,0.411,74,0.411
240,1,incongruent_correct,1,1,1,2,392,3,2,1,0.392,75,0.392
242.5,1,congruent_correct,1,0,1,1,348,1,2,1,0.348,76,0.348
245,1,congruent_correct,1,0,1,1,450,1,2,1,0.45,77,0.45
247.5,1,incongruent_correct,1,1,1,2,366,3,2,1,0.366,78,0.366
250,1,congruent_incorrect,0,0,0,1,386,2,2,1,0.386,79,0.386
252.5,1,congruent_correct,1,0,1,1,535,1,2,1,0.535,80,0.535
255,1,incongruent_incorrect,0,1,0,2,404,4,2,1,0.404,81,0.404
257.5,1,congruent_correct,1,0,1,1,375,1,2,1,0.375,82,0.375
270,1,incongruent_correct,1,1,1,2,543,3,2,1,0.543,83,0.543
272.5,1,congruent_correct,1,0,1,1,476,1,2,1,0.476,84,0.476
275,1,congruent_correct,1,0,1,1,409,1,2,1,0.409,85,0.409
277.5,1,incongruent_correct,1,1,1,2,390,3,2,1,0.39,86,0.39
280,1,incongruent_correct,1,1,1,2,346,3,2,1,0.346,87,0.346
282.5,1,congruent_correct,1,0,1,1,439,1,2,1,0.439,88,0.439
290,1,congruent_incorrect,0,0,0,1,573,2,2,1,0.573,89,0.573
292.5,1,incongruent_correct,1,1,1,2,489,3,2,1,0.489,90,0.489
295,1,incongruent_correct,1,1,1,2,517,3,2,1,0.517,91,0.517
297.5,1,congruent_correct,1,0,1,1,394,1,2,1,0.394,92,0.394
0,1,congruent_correct,1,0,1,1,509,1,2,2,0.509,-2,0.509
2.5,1,congruent_correct,1,0,1,1,417,1,2,2,0.417,-1,0.417
10,1,incongruent_correct,1,1,1,2,503,3,2,2,0.503,0,0.503
12.5,1,incongruent_correct,1,1,1,2,419,3,2,2,0.419,1,0.419
15,1,incongruent_correct,1,1,1,2,376,3,2,2,0.376,2,0.376
17.5,1,incongruent_incorrect,0,1,0,2,421,4,2,2,0.421,3,0.421
25,1,congruent_correct,1,0,1,1,459,1,2,2,0.459,4,0.459
27.5,1,congruent_correct,1,0,1,1,351,1,2,2,0.351,5,0.351
30,1,incongruent_correct,1,1,1,2,340,3,2,2,0.34,6,0.34
32.5,1,congruent_correct,1,0,1,1,448,1,2,2,0.448,7,0.448
35,1,incongruent_correct,1,1,1,2,621,3,2,2,0.621,8,0.621
37.5,1,congruent_correct,1,0,1,1,386,1,2,2,0.386,9,0.386
40,1,congruent_correct,1,0,1,1,414,1,2,2,0.414,10,0.414
42.5,1,incongruent_correct,1,1,1,2,427,3,2,2,0.427,11,0.427
45,1,incongruent_correct,1,1,1,2,344,3,2,2,0.344,12,0.344
47.5,1,incongruent_correct,1,1,1,2,605,3,2,2,0.605,13,0.605
50,1,incongruent_correct,1,1,1,2,385,3,2,2,0.385,14,0.385
52.5,1,incongruent_correct,1,1,1,2,438,3,2,2,0.438,15,0.438
60,1,congruent_incorrect,0,0,0,1,483,2,2,2,0.483,16,0.483
62.5,1,congruent_correct,1,0,1,1,504,1,2,2,0.504,17,0.504
65,1,congruent_correct,1,0,1,1,372,1,2,2,0.372,18,0.372
67.5,1,congruent_correct,1,0,1,1,412,1,2,2,0.412,19,0.412
75,1,congruent_correct,1,0,1,1,585,1,2,2,0.585,20,0.585
77.5,1,congruent_correct,1,0,1,1,444,1,2,2,0.444,21,0.444
80,1,congruent_correct,1,0,1,1,424,1,2,2,0.424,22,0.424
82.5,1,incongruent_correct,1,1,1,2,406,3,2,2,0.406,23,0.406
85,1,incongruent_correct,1,1,1,2,426,3,2,2,0.426,24,0.426
87.5,1,congruent_correct,1,0,1,1,423,1,2,2,0.423,25,0.423
90,1,incongruent_correct,1,1,1,2,420,3,2,2,0.42,26,0.42
92.5,1,congruent_correct,1,0,1,1,459,1,2,2,0.459,27,0.459
95,1,congruent_correct,1,0,1,1,463,1,2,2,0.463,28,0.463
97.5,1,incongruent_correct,1,1,1,2,384,3,2,2,0.384,29,0.384
100,1,congruent_correct,1,0,1,1,454,1,2,2,0.454,30,0.454
102.5,1,incongruent_correct,1,1,1,2,364,3,2,2,0.364,31,0.364
105,1,incongruent_correct,1,1,1,2,407,3,2,2,0.407,32,0.407
107.5,1,incongruent_correct,1,1,1,2,316,3,2,2,0.316,33,0.316
110,1,congruent_correct,1,0,1,1,385,1,2,2,0.385,34,0.385
112.5,1,congruent_correct,1,0,1,1,286,1,2,2,0.286,35,0.286
120,1,congruent_correct,1,0,1,1,531,1,2,2,0.531,36,0.531
122.5,1,congruent_correct,1,0,1,1,353,1,2,2,0.353,37,0.353
125,1,congruent_correct,1,0,1,1,397,1,2,2,0.397,38,0.397
127.5,1,congruent_correct,1,0,1,1,305,1,2,2,0.305,39,0.305
130,1,congruent_correct,1,0,1,1,383,1,2,2,0.383,40,0.383
132.5,1,incongruent_correct,1,1,1,2,460,3,2,2,0.46,41,0.46
135,1,congruent_correct,1,0,1,1,439,1,2,2,0.439,42,0.439
137.5,1,incongruent_correct,1,1,1,2,396,3,2,2,0.396,43,0.396
140,1,congruent_correct,1,0,1,1,362,1,2,2,0.362,44,0.362
142.5,1,incongruent_correct,1,1,1,2,366,3,2,2,0.366,45,0.366
150,1,incongruent_correct,1,1,1,2,581,3,2,2,0.581,46,0.581
152.5,1,congruent_correct,1,0,1,1,377,1,2,2,0.377,47,0.377
155,1,incongruent_correct,1,1,1,2,404,3,2,2,0.404,48,0.404
157.5,1,incongruent_correct,1,1,1,2,410,3,2,2,0.41,49,0.41
160,1,incongruent_correct,1,1,1,2,373,3,2,2,0.373,50,0.373
162.5,1,incongruent_correct,1,1,1,2,435,3,2,2,0.435,51,0.435
165,1,incongruent_correct,1,1,1,2,343,3,2,2,0.343,52,0.343
167.5,1,incongruent_correct,1,1,1,2,380,3,2,2,0.38,53,0.38
170,1,incongruent_correct,1,1,1,2,297,3,2,2,0.297,54,0.297
172.5,1,incongruent_correct,1,1,1,2,429,3,2,2,0.429,55,0.429
175,1,congruent_incorrect,0,0,0,1,386,2,2,2,0.386,56,0.386
177.5,1,congruent_correct,1,0,1,1,374,1,2,2,0.374,57,0.374
185,1,incongruent_correct,1,1,1,2,500,3,2,2,0.5,58,0.5
187.5,1,congruent_correct,1,0,1,1,394,1,2,2,0.394,59,0.394
190,1,congruent_correct,1,0,1,1,381,1,2,2,0.381,60,0.381
192.5,1,incongruent_correct,1,1,1,2,385,3,2,2,0.385,61,0.385
195,1,incongruent_correct,1,1,1,2,375,3,2,2,0.375,62,0.375
197.5,1,incongruent_correct,1,1,1,2,348,3,2,2,0.348,63,0.348
200,1,incongruent_correct,1,1,1,2,360,3,2,2,0.36,64,0.36
202.5,1,congruent_correct,1,0,1,1,357,1,2,2,0.357,65,0.357
210,1,incongruent_correct,1,1,1,2,476,3,2,2,0.476,66,0.476
212.5,1,incongruent_correct,1,1,1,2,336,3,2,2,0.336,67,0.336
215,1,congruent_incorrect,0,0,0,1,420,2,2,2,0.42,68,0.42
217.5,1,incongruent_correct,1,1,1,2,393,3,2,2,0.393,69,0.393
225,1,congruent_correct,1,0,1,1,734,1,2,2,0.734,70,0.734
227.5,1,congruent_correct,1,0,1,1,316,1,2,2,0.316,71,0.316
230,1,congruent_correct,1,0,1,1,408,1,2,2,0.408,72,0.408
232.5,1,congruent_correct,1,0,1,1,398,1,2,2,0.398,73,0.398
235,1,incongruent_correct,1,1,1,2,618,3,2,2,0.618,74,0.618
237.5,1,congruent_correct,1,0,1,1,502,1,2,2,0.502,75,0.502
240,1,congruent_correct,1,0,1,1,543,1,2,2,0.543,76,0.543
242.5,1,incongruent_correct,1,1,1,2,551,3,2,2,0.551,77,0.551
245,1,incongruent_correct,1,1,1,2,476,3,2,2,0.476,78,0.476
247.5,1,congruent_correct,1,0,1,1,473,1,2,2,0.473,79,0.473
250,1,incongruent_correct,1,1,1,2,429,3,2,2,0.429,80,0.429
252.5,1,congruent_correct,1,0,1,1,497,1,2,2,0.497,81,0.497
260,1,incongruent_correct,1,1,1,2,488,3,2,2,0.488,82,0.488
262.5,1,congruent_correct,1,0,1,1,542,1,2,2,0.542,83,0.542
270,1,congruent_correct,1,0,1,1,634,1,2,2,0.634,84,0.634
272.5,1,congruent_correct,1,0,1,1,351,1,2,2,0.351,85,0.351
275,1,incongruent_correct,1,1,1,2,516,3,2,2,0.516,86,0.516
277.5,1,congruent_correct,1,0,1,1,488,1,2,2,0.488,87,0.488
285,1,congruent_correct,1,0,1,1,526,1,2,2,0.526,88,0.526
287.5,1,incongruent_correct,1,1,1,2,379,3,2,2,0.379,89,0.379
290,1,congruent_correct,1,0,1,1,447,1,2,2,0.447,90,0.447
292.5,1,incongruent_correct,1,1,1,2,500,3,2,2,0.5,91,0.5
295,1,incongruent_correct,1,1,1,2,439,3,2,2,0.439,92,0.439
297.5,1,incongruent_correct,1,1,1,2,544,3,2,2,0.544,93,0.544
0,1,incongruent_correct,1,1,1,2,495,3,3,1,0.495,-4,0.495
0,0,incongruent_incorrect,0,1,1,2,NaN,4,3,1,NaN,-3,NaN
2.5,1,incongruent_correct,1,1,1,2,451,3,3,1,0.451,-2,0.451
5,1,congruent_incorrect,0,0,0,1,464,2,3,1,0.464,-1,0.464
7.5,1,congruent_correct,1,0,1,1,452,1,3,1,0.452,0,0.452
10,1,incongruent_correct,1,1,1,2,489,3,3,1,0.489,1,0.489
12.5,1,incongruent_correct,1,1,1,2,494,3,3,1,0.494,2,0.494
20,1,incongruent_correct,1,1,1,2,662,3,3,1,0.662,3,0.662
22.5,1,incongruent_correct,1,1,1,2,409,3,3,1,0.409,4,0.409
25,1,congruent_correct,1,0,1,1,541,1,3,1,0.541,5,0.541
27.5,1,congruent_correct,1,0,1,1,465,1,3,1,0.465,6,0.465
30,1,congruent_correct,1,0,1,1,414,1,3,1,0.414,7,0.414
32.5,1,congruent_correct,1,0,1,1,651,1,3,1,0.651,8,0.651
45,1,congruent_correct,1,0,1,1,617,1,3,1,0.617,9,0.617
47.5,1,congruent_correct,1,0,1,1,495,1,3,1,0.495,10,0.495
50,1,incongruent_correct,1,1,1,2,482,3,3,1,0.482,11,0.482
52.5,1,incongruent_correct,1,1,1,2,448,3,3,1,0.448,12,0.448
55,1,congruent_correct,1,0,1,1,780,1,3,1,0.78,13,0.78
57.5,1,incongruent_correct,1,1,1,2,641,3,3,1,0.641,14,0.641
65,1,congruent_correct,1,0,1,1,720,1,3,1,0.72,15,0.72
67.5,1,incongruent_correct,1,1,1,2,594,3,3,1,0.594,16,0.594
70,1,incongruent_correct,1,1,1,2,505,3,3,1,0.505,17,0.505
72.5,1,incongruent_correct,1,1,1,2,469,3,3,1,0.469,18,0.469
75,1,congruent_correct,1,0,1,1,618,1,3,1,0.618,19,0.618
77.5,1,congruent_correct,1,0,1,1,470,1,3,1,0.47,20,0.47
80,1,congruent_correct,1,0,1,1,402,1,3,1,0.402,21,0.402
82.5,1,congruent_correct,1,0,1,1,496,1,3,1,0.496,22,0.496
85,1,congruent_correct,1,0,1,1,469,1,3,1,0.469,23,0.469
87.5,1,incongruent_correct,1,1,1,2,514,3,3,1,0.514,24,0.514
90,1,incongruent_correct,1,1,1,2,615,3,3,1,0.615,25,0.615
92.5,1,congruent_correct,1,0,1,1,579,1,3,1,0.579,26,0.579
95,1,incongruent_correct,1,1,1,2,496,3,3,1,0.496,27,0.496
97.5,1,incongruent_correct,1,1,1,2,476,3,3,1,0.476,28,0.476
100,1,incongruent_correct,1,1,1,2,416,3,3,1,0.416,29,0.416
102.5,1,incongruent_correct,1,1,1,2,508,3,3,1,0.508,30,0.508
105,1,congruent_correct,1,0,1,1,425,1,3,1,0.425,31,0.425
107.5,1,congruent_correct,1,0,1,1,519,1,3,1,0.519,32,0.519
110,1,incongruent_correct,1,1,1,2,579,3,3,1,0.579,33,0.579
112.5,1,incongruent_correct,1,1,1,2,400,3,3,1,0.4,34,0.4
120,1,incongruent_correct,1,1,1,2,462,3,3,1,0.462,35,0.462
122.5,1,congruent_correct,1,0,1,1,531,1,3,1,0.531,36,0.531
125,1,congruent_correct,1,0,1,1,536,1,3,1,0.536,37,0.536
127.5,1,congruent_correct,1,0,1,1,468,1,3,1,0.468,38,0.468
135,1,incongruent_correct,1,1,1,2,474,3,3,1,0.474,39,0.474
137.5,1,congruent_correct,1,0,1,1,461,1,3,1,0.461,40,0.461
140,1,congruent_correct,1,0,1,1,412,1,3,1,0.412,41,0.412
142.5,1,incongruent_correct,1,1,1,2,495,3,3,1,0.495,42,0.495
145,1,congruent_correct,1,0,1,1,453,1,3,1,0.453,43,0.453
147.5,1,incongruent_correct,1,1,1,2,505,3,3,1,0.505,44,0.505
150,1,congruent_correct,1,0,1,1,543,1,3,1,0.543,45,0.543
152.5,1,congruent_correct,1,0,1,1,517,1,3,1,0.517,46,0.517
155,1,congruent_correct,1,0,1,1,503,1,3,1,0.503,47,0.503
157.5,1,incongruent_correct,1,1,1,2,572,3,3,1,0.572,48,0.572
160,1,incongruent_correct,1,1,1,2,360,3,3,1,0.36,49,0.36
162.5,1,congruent_correct,1,0,1,1,405,1,3,1,0.405,50,0.405
170,1,incongruent_correct,1,1,1,2,547,3,3,1,0.547,51,0.547
172.5,1,congruent_correct,1,0,1,1,612,1,3,1,0.612,52,0.612
175,1,congruent_correct,1,0,1,1,676,1,3,1,0.676,53,0.676
177.5,1,incongruent_correct,1,1,1,2,601,3,3,1,0.601,54,0.601
185,1,incongruent_correct,1,1,1,2,559,3,3,1,0.559,55,0.559
187.5,1,incongruent_correct,1,1,1,2,548,3,3,1,0.548,56,0.548
190,1,incongruent_correct,1,1,1,2,505,3,3,1,0.505,57,0.505
192.5,1,incongruent_correct,1,1,1,2,518,3,3,1,0.518,58,0.518
195,1,congruent_correct,1,0,1,1,674,1,3,1,0.674,59,0.674
197.5,1,congruent_correct,1,0,1,1,447,1,3,1,0.447,60,0.447
200,1,congruent_correct,1,0,1,1,547,1,3,1,0.547,61,0.547
202.5,1,incongruent_correct,1,1,1,2,552,3,3,1,0.552,62,0.552
205,1,incongruent_correct,1,1,1,2,476,3,3,1,0.476,63,0.476
207.5,1,incongruent_correct,1,1,1,2,480,3,3,1,0.48,64,0.48
215,1,incongruent_correct,1,1,1,2,613,3,3,1,0.613,65,0.613
217.5,1,incongruent_correct,1,1,1,2,485,3,3,1,0.485,66,0.485
220,1,congruent_correct,1,0,1,1,593,1,3,1,0.593,67,0.593
222.5,1,incongruent_correct,1,1,1,2,510,3,3,1,0.51,68,0.51
225,1,incongruent_correct,1,1,1,2,490,3,3,1,0.49,69,0.49
227.5,1,congruent_correct,1,0,1,1,558,1,3,1,0.558,70,0.558
230,1,congruent_correct,1,0,1,1,483,1,3,1,0.483,71,0.483
232.5,1,congruent_correct,1,0,1,1,319,1,3,1,0.319,72,0.319
235,1,incongruent_correct,1,1,1,2,501,3,3,1,0.501,73,0.501
237.5,1,congruent_correct,1,0,1,1,537,1,3,1,0.537,74,0.537
240,1,incongruent_correct,1,1,1,2,389,3,3,1,0.389,75,0.389
242.5,1,congruent_correct,1,0,1,1,394,1,3,1,0.394,76,0.394
245,1,congruent_correct,1,0,1,1,471,1,3,1,0.471,77,0.471
247.5,1,incongruent_correct,1,1,1,2,437,3,3,1,0.437,78,0.437
250,1,congruent_correct,1,0,1,1,392,1,3,1,0.392,79,0.392
252.5,1,congruent_correct,1,0,1,1,485,1,3,1,0.485,80,0.485
255,1,incongruent_correct,1,1,1,2,498,3,3,1,0.498,81,0.498
257.5,1,congruent_correct,1,0,1,1,494,1,3,1,0.494,82,0.494
270,1,incongruent_correct,1,1,1,2,565,3,3,1,0.565,83,0.565
272.5,1,congruent_correct,1,0,1,1,450,1,3,1,0.45,84,0.45
275,1,congruent_correct,1,0,1,1,492,1,3,1,0.492,85,0.492
277.5,1,incongruent_correct,1,1,1,2,522,3,3,1,0.522,86,0.522
280,1,incongruent_correct,1,1,1,2,537,3,3,1,0.537,87,0.537
282.5,1,congruent_correct,1,0,1,1,446,1,3,1,0.446,88,0.446
290,1,congruent_correct,1,0,1,1,499,1,3,1,0.499,89,0.499
292.5,1,incongruent_correct,1,1,1,2,415,3,3,1,0.415,90,0.415
295,1,incongruent_correct,1,1,1,2,452,3,3,1,0.452,91,0.452
297.5,1,congruent_correct,1,0,1,1,521,1,3,1,0.521,92,0.521
0,1,congruent_correct,1,0,1,1,497,1,3,2,0.497,-3,0.497
0,0,congruent_incorrect,0,0,1,1,NaN,2,3,2,NaN,-2,NaN
2.5,1,congruent_correct,1,0,1,1,350,1,3,2,0.35,-1,0.35
10,1,incongruent_incorrect,0,1,0,2,523,4,3,2,0.523,0,0.523
12.5,1,incongruent_correct,1,1,1,2,454,3,3,2,0.454,1,0.454
15,1,incongruent_correct,1,1,1,2,541,3,3,2,0.541,2,0.541
17.5,1,incongruent_correct,1,1,1,2,441,3,3,2,0.441,3,0.441
25,1,congruent_correct,1,0,1,1,495,1,3,2,0.495,4,0.495
27.5,1,congruent_correct,1,0,1,1,475,1,3,2,0.475,5,0.475
30,1,incongruent_correct,1,1,1,2,464,3,3,2,0.464,6,0.464
32.5,1,congruent_correct,1,0,1,1,734,1,3,2,0.734,7,0.734
35,1,incongruent_correct,1,1,1,2,474,3,3,2,0.474,8,0.474
37.5,1,congruent_correct,1,0,1,1,742,1,3,2,0.742,9,0.742
40,1,congruent_correct,1,0,1,1,577,1,3,2,0.577,10,0.577
42.5,1,incongruent_correct,1,1,1,2,457,3,3,2,0.457,11,0.457
45,1,incongruent_correct,1,1,1,2,492,3,3,2,0.492,12,0.492
47.5,1,incongruent_correct,1,1,1,2,440,3,3,2,0.44,13,0.44
50,1,incongruent_correct,1,1,1,2,437,3,3,2,0.437,14,0.437
52.5,1,incongruent_correct,1,1,1,2,506,3,3,2,0.506,15,0.506
60,1,congruent_correct,1,0,1,1,520,1,3,2,0.52,16,0.52
62.5,1,congruent_correct,1,0,1,1,500,1,3,2,0.5,17,0.5
65,1,congruent_correct,1,0,1,1,370,1,3,2,0.37,18,0.37
67.5,1,congruent_correct,1,0,1,1,398,1,3,2,0.398,19,0.398
75,1,congruent_correct,1,0,1,1,365,1,3,2,0.365,20,0.365
77.5,1,congruent_correct,1,0,1,1,385,1,3,2,0.385,21,0.385
80,1,congruent_correct,1,0,1,1,413,1,3,2,0.413,22,0.413
82.5,1,incongruent_incorrect,0,1,0,2,417,4,3,2,0.417,23,0.417
85,1,incongruent_correct,1,1,1,2,479,3,3,2,0.479,24,0.479
87.5,1,congruent_correct,1,0,1,1,596,1,3,2,0.596,25,0.596
90,1,incongruent_correct,1,1,1,2,496,3,3,2,0.496,26,0.496
92.5,1,congruent_correct,1,0,1,1,517,1,3,2,0.517,27,0.517
95,1,congruent_correct,1,0,1,1,353,1,3,2,0.353,28,0.353
97.5,1,incongruent_correct,1,1,1,2,541,3,3,2,0.541,29,0.541
100,1,congruent_correct,1,0,1,1,588,1,3,2,0.588,30,0.588
102.5,1,incongruent_correct,1,1,1,2,584,3,3,2,0.584,31,0.584
105,1,incongruent_correct,1,1,1,2,549,3,3,2,0.549,32,0.549
107.5,1,incongruent_correct,1,1,1,2,609,3,3,2,0.609,33,0.609
110,1,congruent_correct,1,0,1,1,422,1,3,2,0.422,34,0.422
112.5,1,congruent_correct,1,0,1,1,562,1,3,2,0.562,35,0.562
120,1,congruent_correct,1,0,1,1,544,1,3,2,0.544,36,0.544
122.5,1,congruent_correct,1,0,1,1,509,1,3,2,0.509,37,0.509
125,1,congruent_correct,1,0,1,1,681,1,3,2,0.681,38,0.681
127.5,1,congruent_correct,1,0,1,1,485,1,3,2,0.485,39,0.485
130,1,congruent_correct,1,0,1,1,530,1,3,2,0.53,40,0.53
132.5,1,incongruent_correct,1,1,1,2,663,3,3,2,0.663,41,0.663
135,1,congruent_correct,1,0,1,1,421,1,3,2,0.421,42,0.421
137.5,1,incongruent_correct,1,1,1,2,514,3,3,2,0.514,43,0.514
140,1,congruent_correct,1,0,1,1,461,1,3,2,0.461,44,0.461
142.5,1,incongruent_correct,1,1,1,2,426,3,3,2,0.426,45,0.426
150,1,incongruent_correct,1,1,1,2,488,3,3,2,0.488,46,0.488
152.5,1,congruent_correct,1,0,1,1,462,1,3,2,0.462,47,0.462
155,1,incongruent_correct,1,1,1,2,632,3,3,2,0.632,48,0.632
157.5,1,incongruent_correct,1,1,1,2,454,3,3,2,0.454,49,0.454
160,1,incongruent_correct,1,1,1,2,571,3,3,2,0.571,50,0.571
162.5,1,incongruent_correct,1,1,1,2,430,3,3,2,0.43,51,0.43
165,1,incongruent_correct,1,1,1,2,588,3,3,2,0.588,52,0.588
167.5,1,incongruent_correct,1,1,1,2,545,3,3,2,0.545,53,0.545
170,1,incongruent_correct,1,1,1,2,526,3,3,2,0.526,54,0.526
172.5,1,incongruent_correct,1,1,1,2,450,3,3,2,0.45,55,0.45
175,1,congruent_correct,1,0,1,1,543,1,3,2,0.543,56,0.543
177.5,1,congruent_correct,1,0,1,1,491,1,3,2,0.491,57,0.491
185,1,incongruent_correct,1,1,1,2,488,3,3,2,0.488,58,0.488
187.5,1,congruent_correct,1,0,1,1,502,1,3,2,0.502,59,0.502
190,1,congruent_correct,1,0,1,1,546,1,3,2,0.546,60,0.546
192.5,1,incongruent_correct,1,1,1,2,455,3,3,2,0.455,61,0.455
195,1,incongruent_correct,1,1,1,2,355,3,3,2,0.355,62,0.355
197.5,1,incongruent_correct,1,1,1,2,529,3,3,2,0.529,63,0.529
200,1,incongruent_correct,1,1,1,2,485,3,3,2,0.485,64,0.485
202.5,1,congruent_correct,1,0,1,1,554,1,3,2,0.554,65,0.554
210,1,incongruent_correct,1,1,1,2,553,3,3,2,0.553,66,0.553
212.5,1,incongruent_correct,1,1,1,2,444,3,3,2,0.444,67,0.444
215,1,congruent_correct,1,0,1,1,528,1,3,2,0.528,68,0.528
217.5,1,incongruent_correct,1,1,1,2,445,3,3,2,0.445,69,0.445
225,1,congruent_correct,1,0,1,1,388,1,3,2,0.388,70,0.388
227.5,1,congruent_correct,1,0,1,1,514,1,3,2,0.514,71,0.514
230,1,congruent_correct,1,0,1,1,366,1,3,2,0.366,72,0.366
232.5,1,congruent_correct,1,0,1,1,522,1,3,2,0.522,73,0.522
235,1,incongruent_correct,1,1,1,2,598,3,3,2,0.598,74,0.598
237.5,1,congruent_correct,1,0,1,1,395,1,3,2,0.395,75,0.395
240,1,congruent_correct,1,0,1,1,400,1,3,2,0.4,76,0.4
242.5,1,incongruent_correct,1,1,1,2,613,3,3,2,0.613,77,0.613
245,1,incongruent_correct,1,1,1,2,418,3,3,2,0.418,78,0.418
247.5,1,congruent_correct,1,0,1,1,406,1,3,2,0.406,79,0.406
250,1,incongruent_correct,1,1,1,2,513,3,3,2,0.513,80,0.513
252.5,1,congruent_correct,1,0,1,1,605,1,3,2,0.605,81,0.605
260,1,incongruent_correct,1,1,1,2,669,3,3,2,0.669,82,0.669
262.5,1,congruent_correct,1,0,1,1,449,1,3,2,0.449,83,0.449
270,1,congruent_correct,1,0,1,1,344,1,3,2,0.344,84,0.344
272.5,1,congruent_correct,1,0,1,1,397,1,3,2,0.397,85,0.397
275,1,incongruent_correct,1,1,1,2,546,3,3,2,0.546,86,0.546
277.5,1,congruent_correct,1,0,1,1,461,1,3,2,0.461,87,0.461
285,1,congruent_correct,1,0,1,1,363,1,3,2,0.363,88,0.363
287.5,1,incongruent_incorrect,0,1,0,2,402,4,3,2,0.402,89,0.402
290,1,congruent_correct,1,0,1,1,388,1,3,2,0.388,90,0.388
292.5,1,incongruent_correct,1,1,1,2,561,3,3,2,0.561,91,0.561
295,1,incongruent_correct,1,1,1,2,398,3,3,2,0.398,92,0.398
297.5,1,incongruent_correct,1,1,1,2,444,3,3,2,0.444,93,0.444
0,1,incongruent_correct,1,1,1,2,509,3,4,1,0.509,-3,0.509
2.5,1,incongruent_correct,1,1,1,2,512,3,4,1,0.512,-2,0.512
5,1,congruent_correct,1,0,1,1,517,1,4,1,0.517,-1,0.517
7.5,1,congruent_correct,1,0,1,1,472,1,4,1,0.472,0,0.472
10,1,incongruent_correct,1,1,1,2,614,3,4,1,0.614,1,0.614
12.5,1,incongruent_correct,1,1,1,2,507,3,4,1,0.507,2,0.507
20,1,incongruent_correct,1,1,1,2,544,3,4,1,0.544,3,0.544
22.5,1,incongruent_correct,1,1,1,2,431,3,4,1,0.431,4,0.431
25,1,congruent_correct,1,0,1,1,467,1,4,1,0.467,5,0.467
27.5,1,congruent_correct,1,0,1,1,446,1,4,1,0.446,6,0.446
30,1,congruent_correct,1,0,1,1,492,1,4,1,0.492,7,0.492
32.5,1,congruent_correct,1,0,1,1,424,1,4,1,0.424,8,0.424
45,1,congruent_correct,1,0,1,1,615,1,4,1,0.615,9,0.615
47.5,1,congruent_correct,1,0,1,1,372,1,4,1,0.372,10,0.372
50,1,incongruent_correct,1,1,1,2,601,3,4,1,0.601,11,0.601
52.5,1,incongruent_correct,1,1,1,2,573,3,4,1,0.573,12,0.573
55,1,congruent_correct,1,0,1,1,522,1,4,1,0.522,13,0.522
57.5,1,incongruent_correct,1,1,1,2,592,3,4,1,0.592,14,0.592
65,1,congruent_correct,1,0,1,1,750,1,4,1,0.75,15,0.75
67.5,1,incongruent_incorrect,0,1,0,2,682,4,4,1,0.682,16,0.682
70,1,incongruent_correct,1,1,1,2,534,3,4,1,0.534,17,0.534
72.5,1,incongruent_correct,1,1,1,2,524,3,4,1,0.524,18,0.524
75,1,congruent_correct,1,0,1,1,575,1,4,1,0.575,19,0.575
77.5,1,congruent_correct,1,0,1,1,429,1,4,1,0.429,20,0.429
80,1,congruent_correct,1,0,1,1,424,1,4,1,0.424,21,0.424
82.5,1,congruent_correct,1,0,1,1,477,1,4,1,0.477,22,0.477
85,1,congruent_correct,1,0,1,1,386,1,4,1,0.386,23,0.386
87.5,1,incongruent_correct,1,1,1,2,503,3,4,1,0.503,24,0.503
90,1,incongruent_correct,1,1,1,2,596,3,4,1,0.596,25,0.596
92.5,1,congruent_correct,1,0,1,1,473,1,4,1,0.473,26,0.473
95,1,incongruent_correct,1,1,1,2,525,3,4,1,0.525,27,0.525
97.5,1,incongruent_correct,1,1,1,2,545,3,4,1,0.545,28,0.545
100,1,incongruent_correct,1,1,1,2,454,3,4,1,0.454,29,0.454
102.5,1,incongruent_correct,1,1,1,2,475,3,4,1,0.475,30,0.475
105,1,congruent_correct,1,0,1,1,496,1,4,1,0.496,31,0.496
107.5,1,congruent_correct,1,0,1,1,541,1,4,1,0.541,32,0.541
110,1,incongruent_correct,1,1,1,2,545,3,4,1,0.545,33,0.545
112.5,1,incongruent_correct,1,1,1,2,533,3,4,1,0.533,34,0.533
120,1,incongruent_correct,1,1,1,2,619,3,4,1,0.619,35,0.619
122.5,1,congruent_correct,1,0,1,1,536,1,4,1,0.536,36,0.536
125,1,congruent_correct,1,0,1,1,438,1,4,1,0.438,37,0.438
127.5,1,congruent_correct,1,0,1,1,474,1,4,1,0.474,38,0.474
135,1,incongruent_correct,1,1,1,2,551,3,4,1,0.551,39,0.551
137.5,1,congruent_correct,1,0,1,1,533,1,4,1,0.533,40,0.533
140,1,congruent_correct,1,0,1,1,440,1,4,1,0.44,41,0.44
142.5,1,incongruent_correct,1,1,1,2,509,3,4,1,0.509,42,0.509
145,1,congruent_incorrect,0,0,0,1,603,2,4,1,0.603,43,0.603
147.5,1,incongruent_correct,1,1,1,2,678,3,4,1,0.678,44,0.678
150,1,congruent_correct,1,0,1,1,514,1,4,1,0.514,45,0.514
152.5,1,congruent_correct,1,0,1,1,432,1,4,1,0.432,46,0.432
155,1,congruent_correct,1,0,1,1,470,1,4,1,0.47,47,0.47
157.5,1,incongruent_correct,1,1,1,2,537,3,4,1,0.537,48,0.537
160,1,incongruent_correct,1,1,1,2,494,3,4,1,0.494,49,0.494
162.5,1,congruent_correct,1,0,1,1,595,1,4,1,0.595,50,0.595
170,1,incongruent_correct,1,1,1,2,600,3,4,1,0.6,51,0.6
172.5,1,congruent_correct,1,0,1,1,645,1,4,1,0.645,52,0.645
175,1,congruent_correct,1,0,1,1,457,1,4,1,0.457,53,0.457
177.5,1,incongruent_correct,1,1,1,2,503,3,4,1,0.503,54,0.503
185,1,incongruent_correct,1,1,1,2,559,3,4,1,0.559,55,0.559
187.5,1,incongruent_correct,1,1,1,2,530,3,4,1,0.53,56,0.53
190,1,incongruent_correct,1,1,1,2,414,3,4,1,0.414,57,0.414
192.5,1,incongruent_correct,1,1,1,2,475,3,4,1,0.475,58,0.475
195,1,congruent_correct,1,0,1,1,448,1,4,1,0.448,59,0.448
197.5,1,congruent_correct,1,0,1,1,475,1,4,1,0.475,60,0.475
200,1,congruent_correct,1,0,1,1,465,1,4,1,0.465,61,0.465
202.5,1,incongruent_correct,1,1,1,2,478,3,4,1,0.478,62,0.478
205,1,incongruent_correct,1,1,1,2,457,3,4,1,0.457,63,0.457
207.5,1,incongruent_correct,1,1,1,2,623,3,4,1,0.623,64,0.623
215,1,incongruent_correct,1,1,1,2,507,3,4,1,0.507,65,0.507
217.5,1,incongruent_correct,1,1,1,2,425,3,4,1,0.425,66,0.425
220,1,congruent_correct,1,0,1,1,470,1,4,1,0.47,67,0.47
222.5,1,incongruent_correct,1,1,1,2,509,3,4,1,0.509,68,0.509
225,1,incongruent_correct,1,1,1,2,439,3,4,1,0.439,69,0.439
227.5,1,congruent_correct,1,0,1,1,428,1,4,1,0.428,70,0.428
230,1,congruent_correct,1,0,1,1,505,1,4,1,0.505,71,0.505
232.5,1,congruent_correct,1,0,1,1,477,1,4,1,0.477,72,0.477
235,1,incongruent_correct,1,1,1,2,585,3,4,1,0.585,73,0.585
237.5,1,congruent_correct,1,0,1,1,582,1,4,1,0.582,74,0.582
240,1,incongruent_correct,1,1,1,2,516,3,4,1,0.516,75,0.516
242.5,1,congruent_correct,1,0,1,1,463,1,4,1,0.463,76,0.463
245,1,congruent_correct,1,0,1,1,477,1,4,1,0.477,77,0.477
247.5,1,incongruent_correct,1,1,1,2,689,3,4,1,0.689,78,0.689
250,1,congruent_correct,1,0,1,1,447,1,4,1,0.447,79,0.447
252.5,1,congruent_correct,1,0,1,1,530,1,4,1,0.53,80,0.53
255,1,incongruent_correct,1,1,1,2,607,3,4,1,0.607,81,0.607
257.5,1,congruent_correct,1,0,1,1,492,1,4,1,0.492,82,0.492
270,1,incongruent_correct,1,1,1,2,547,3,4,1,0.547,83,0.547
272.5,1,congruent_correct,1,0,1,1,424,1,4,1,0.424,84,0.424
275,1,congruent_correct,1,0,1,1,405,1,4,1,0.405,85,0.405
277.5,1,incongruent_correct,1,1,1,2,504,3,4,1,0.504,86,0.504
280,1,incongruent_correct,1,1,1,2,501,3,4,1,0.501,87,0.501
282.5,1,congruent_correct,1,0,1,1,580,1,4,1,0.58,88,0.58
290,1,congruent_correct,1,0,1,1,497,1,4,1,0.497,89,0.497
292.5,1,incongruent_correct,1,1,1,2,477,3,4,1,0.477,90,0.477
295,1,incongruent_correct,1,1,1,2,490,3,4,1,0.49,91,0.49
297.5,1,congruent_correct,1,0,1,1,454,1,4,1,0.454,92,0.454
0,1,congruent_correct,1,0,1,1,478,1,4,2,0.478,-3,0.478
0,0,congruent_incorrect,0,0,1,1,NaN,2,4,2,NaN,-2,NaN
2.5,1,congruent_correct,1,0,1,1,346,1,4,2,0.346,-1,0.346
10,1,incongruent_correct,1,1,1,2,537,3,4,2,0.537,0,0.537
12.5,1,incongruent_correct,1,1,1,2,486,3,4,2,0.486,1,0.486
15,1,incongruent_correct,1,1,1,2,483,3,4,2,0.483,2,0.483
17.5,1,incongruent_correct,1,1,1,2,373,3,4,2,0.373,3,0.373
25,1,congruent_correct,1,0,1,1,492,1,4,2,0.492,4,0.492
27.5,1,congruent_correct,1,0,1,1,393,1,4,2,0.393,5,0.393
30,1,incongruent_incorrect,0,1,0,2,366,4,4,2,0.366,6,0.366
32.5,1,congruent_correct,1,0,1,1,547,1,4,2,0.547,7,0.547
35,1,incongruent_correct,1,1,1,2,632,3,4,2,0.632,8,0.632
37.5,1,congruent_correct,1,0,1,1,403,1,4,2,0.403,9,0.403
40,1,congruent_correct,1,0,1,1,448,1,4,2,0.448,10,0.448
42.5,1,incongruent_correct,1,1,1,2,447,3,4,2,0.447,11,0.447
45,1,incongruent_correct,1,1,1,2,426,3,4,2,0.426,12,0.426
47.5,1,incongruent_correct,1,1,1,2,471,3,4,2,0.471,13,0.471
50,1,incongruent_correct,1,1,1,2,604,3,4,2,0.604,14,0.604
52.5,1,incongruent_correct,1,1,1,2,464,3,4,2,0.464,15,0.464
60,1,congruent_correct,1,0,1,1,511,1,4,2,0.511,16,0.511
62.5,1,congruent_correct,1,0,1,1,442,1,4,2,0.442,17,0.442
65,1,congruent_correct,1,0,1,1,351,1,4,2,0.351,18,0.351
67.5,1,congruent_correct,1,0,1,1,364,1,4,2,0.364,19,0.364
75,1,congruent_correct,1,0,1,1,451,1,4,2,0.451,20,0.451
77.5,1,congruent_correct,1,0,1,1,431,1,4,2,0.431,21,0.431
80,1,congruent_correct,1,0,1,1,356,1,4,2,0.356,22,0.356
82.5,1,incongruent_correct,1,1,1,2,518,3,4,2,0.518,23,0.518
85,1,incongruent_correct,1,1,1,2,476,3,4,2,0.476,24,0.476
87.5,1,congruent_correct,1,0,1,1,465,1,4,2,0.465,25,0.465
90,1,incongruent_correct,1,1,1,2,517,3,4,2,0.517,26,0.517
92.5,1,congruent_correct,1,0,1,1,466,1,4,2,0.466,27,0.466
95,1,congruent_correct,1,0,1,1,453,1,4,2,0.453,28,0.453
97.5,1,incongruent_correct,1,1,1,2,548,3,4,2,0.548,29,0.548
100,1,congruent_correct,1,0,1,1,504,1,4,2,0.504,30,0.504
102.5,1,incongruent_correct,1,1,1,2,484,3,4,2,0.484,31,0.484
105,1,incongruent_correct,1,1,1,2,417,3,4,2,0.417,32,0.417
107.5,1,incongruent_correct,1,1,1,2,462,3,4,2,0.462,33,0.462
110,1,congruent_correct,1,0,1,1,491,1,4,2,0.491,34,0.491
112.5,1,congruent_correct,1,0,1,1,384,1,4,2,0.384,35,0.384
120,1,congruent_correct,1,0,1,1,470,1,4,2,0.47,36,0.47
122.5,1,congruent_correct,1,0,1,1,371,1,4,2,0.371,37,0.371
125,1,congruent_correct,1,0,1,1,448,1,4,2,0.448,38,0.448
127.5,1,congruent_correct,1,0,1,1,428,1,4,2,0.428,39,0.428
130,1,congruent_correct,1,0,1,1,473,1,4,2,0.473,40,0.473
132.5,1,incongruent_correct,1,1,1,2,541,3,4,2,0.541,41,0.541
135,1,congruent_correct,1,0,1,1,426,1,4,2,0.426,42,0.426
137.5,1,incongruent_correct,1,1,1,2,462,3,4,2,0.462,43,0.462
140,1,congruent_correct,1,0,1,1,412,1,4,2,0.412,44,0.412
142.5,1,incongruent_correct,1,1,1,2,536,3,4,2,0.536,45,0.536
150,1,incongruent_correct,1,1,1,2,558,3,4,2,0.558,46,0.558
152.5,1,congruent_correct,1,0,1,1,450,1,4,2,0.45,47,0.45
155,1,incongruent_correct,1,1,1,2,479,3,4,2,0.479,48,0.479
157.5,1,incongruent_correct,1,1,1,2,612,3,4,2,0.612,49,0.612
160,1,incongruent_correct,1,1,1,2,424,3,4,2,0.424,50,0.424
162.5,1,incongruent_correct,1,1,1,2,437,3,4,2,0.437,51,0.437
165,1,incongruent_correct,1,1,1,2,417,3,4,2,0.417,52,0.417
167.5,1,incongruent_correct,1,1,1,2,422,3,4,2,0.422,53,0.422
170,1,incongruent_correct,1,1,1,2,427,3,4,2,0.427,54,0.427
172.5,1,incongruent_correct,1,1,1,2,518,3,4,2,0.518,55,0.518
175,1,congruent_correct,1,0,1,1,421,1,4,2,0.421,56,0.421
177.5,1,congruent_correct,1,0,1,1,418,1,4,2,0.418,57,0.418
185,1,incongruent_correct,1,1,1,2,501,3,4,2,0.501,58,0.501
187.5,1,congruent_correct,1,0,1,1,484,1,4,2,0.484,59,0.484
190,1,congruent_correct,1,0,1,1,392,1,4,2,0.392,60,0.392
192.5,1,incongruent_correct,1,1,1,2,444,3,4,2,0.444,61,0.444
195,1,incongruent_correct,1,1,1,2,426,3,4,2,0.426,62,0.426
197.5,1,incongruent_correct,1,1,1,2,430,3,4,2,0.43,63,0.43
200,1,incongruent_correct,1,1,1,2,402,3,4,2,0.402,64,0.402
202.5,1,congruent_correct,1,0,1,1,375,1,4,2,0.375,65,0.375
210,1,incongruent_correct,1,1,1,2,469,3,4,2,0.469,66,0.469
212.5,1,incongruent_correct,1,1,1,2,443,3,4,2,0.443,67,0.443
215,1,congruent_correct,1,0,1,1,617,1,4,2,0.617,68,0.617
217.5,1,incongruent_correct,1,1,1,2,527,3,4,2,0.527,69,0.527
225,1,congruent_correct,1,0,1,1,490,1,4,2,0.49,70,0.49
227.5,1,congruent_correct,1,0,1,1,486,1,4,2,0.486,71,0.486
230,1,congruent_correct,1,0,1,1,419,1,4,2,0.419,72,0.419
232.5,1,congruent_correct,1,0,1,1,408,1,4,2,0.408,73,0.408
235,1,incongruent_correct,1,1,1,2,492,3,4,2,0.492,74,0.492
237.5,1,congruent_correct,1,0,1,1,609,1,4,2,0.609,75,0.609
240,1,congruent_correct,1,0,1,1,429,1,4,2,0.429,76,0.429
242.5,1,incongruent_correct,1,1,1,2,474,3,4,2,0.474,77,0.474
245,1,incongruent_correct,1,1,1,2,543,3,4,2,0.543,78,0.543
247.5,1,congruent_correct,1,0,1,1,484,1,4,2,0.484,79,0.484
250,1,incongruent_correct,1,1,1,2,510,3,4,2,0.51,80,0.51
252.5,1,congruent_correct,1,0,1,1,492,1,4,2,0.492,81,0.492
260,1,incongruent_incorrect,0,1,0,2,475,4,4,2,0.475,82,0.475
262.5,1,congruent_correct,1,0,1,1,519,1,4,2,0.519,83,0.519
270,1,congruent_correct,1,0,1,1,678,1,4,2,0.678,84,0.678
272.5,1,congruent_correct,1,0,1,1,435,1,4,2,0.435,85,0.435
275,1,incongruent_correct,1,1,1,2,510,3,4,2,0.51,86,0.51
277.5,1,congruent_correct,1,0,1,1,404,1,4,2,0.404,87,0.404
285,1,congruent_correct,1,0,1,1,482,1,4,2,0.482,88,0.482
287.5,1,incongruent_correct,1,1,1,2,502,3,4,2,0.502,89,0.502
290,1,congruent_correct,1,0,1,1,451,1,4,2,0.451,90,0.451
292.5,1,incongruent_correct,1,1,1,2,551,3,4,2,0.551,91,0.551
295,1,incongruent_correct,1,1,1,2,460,3,4,2,0.46,92,0.46
297.5,1,incongruent_correct,1,1,1,2,448,3,4,2,0.448,93,0.448
0,0,congruent_incorrect,0,1,1,2,NaN,2,5,1,NaN,-4,NaN
0,1,incongruent_correct,1,1,1,2,617,3,5,1,0.617,-3,0.617
2.5,1,incongruent_correct,1,1,1,2,373,3,5,1,0.373,-2,0.373
5,1,congruent_correct,1,0,1,1,379,1,5,1,0.379,-1,0.379
7.5,1,congruent_correct,1,0,1,1,351,1,5,1,0.351,0,0.351
10,1,incongruent_correct,1,1,1,2,460,3,5,1,0.46,1,0.46
12.5,1,incongruent_correct,1,1,1,2,424,3,5,1,0.424,2,0.424
20,1,incongruent_correct,1,1,1,2,542,3,5,1,0.542,3,0.542
22.5,1,incongruent_correct,1,1,1,2,355,3,5,1,0.355,4,0.355
25,1,congruent_correct,1,0,1,1,359,1,5,1,0.359,5,0.359
27.5,1,congruent_correct,1,0,1,1,323,1,5,1,0.323,6,0.323
30,1,congruent_correct,1,0,1,1,336,1,5,1,0.336,7,0.336
32.5,1,congruent_correct,1,0,1,1,349,1,5,1,0.349,8,0.349
45,1,congruent_correct,1,0,1,1,420,1,5,1,0.42,9,0.42
47.5,1,congruent_correct,1,0,1,1,264,1,5,1,0.264,10,0.264
50,1,incongruent_correct,1,1,1,2,573,3,5,1,0.573,11,0.573
52.5,1,incongruent_correct,1,1,1,2,433,3,5,1,0.433,12,0.433
55,1,congruent_correct,1,0,1,1,414,1,5,1,0.414,13,0.414
57.5,1,incongruent_correct,1,1,1,2,372,3,5,1,0.372,14,0.372
65,1,congruent_correct,1,0,1,1,706,1,5,1,0.706,15,0.706
67.5,1,incongruent_correct,1,1,1,2,366,3,5,1,0.366,16,0.366
70,1,incongruent_correct,1,1,1,2,379,3,5,1,0.379,17,0.379
72.5,1,incongruent_correct,1,1,1,2,320,3,5,1,0.32,18,0.32
75,1,congruent_correct,1,0,1,1,468,1,5,1,0.468,19,0.468
77.5,1,congruent_correct,1,0,1,1,329,1,5,1,0.329,20,0.329
80,1,congruent_correct,1,0,1,1,486,1,5,1,0.486,21,0.486
82.5,1,congruent_correct,1,0,1,1,379,1,5,1,0.379,22,0.379
85,1,congruent_correct,1,0,1,1,471,1,5,1,0.471,23,0.471
87.5,1,incongruent_correct,1,1,1,2,467,3,5,1,0.467,24,0.467
90,1,incongruent_incorrect,0,1,0,2,465,4,5,1,0.465,25,0.465
92.5,1,congruent_correct,1,0,1,1,413,1,5,1,0.413,26,0.413
95,1,incongruent_correct,1,1,1,2,411,3,5,1,0.411,27,0.411
97.5,1,incongruent_correct,1,1,1,2,422,3,5,1,0.422,28,0.422
100,1,incongruent_correct,1,1,1,2,452,3,5,1,0.452,29,0.452
102.5,1,incongruent_correct,1,1,1,2,335,3,5,1,0.335,30,0.335
105,1,congruent_correct,1,0,1,1,396,1,5,1,0.396,31,0.396
107.5,1,congruent_correct,1,0,1,1,385,1,5,1,0.385,32,0.385
110,1,incongruent_correct,1,1,1,2,381,3,5,1,0.381,33,0.381
112.5,1,incongruent_correct,1,1,1,2,413,3,5,1,0.413,34,0.413
120,1,incongruent_correct,1,1,1,2,551,3,5,1,0.551,35,0.551
122.5,1,congruent_correct,1,0,1,1,460,1,5,1,0.46,36,0.46
125,1,congruent_correct,1,0,1,1,345,1,5,1,0.345,37,0.345
127.5,1,congruent_correct,1,0,1,1,495,1,5,1,0.495,38,0.495
135,1,incongruent_correct,1,1,1,2,564,3,5,1,0.564,39,0.564
137.5,1,congruent_correct,1,0,1,1,364,1,5,1,0.364,40,0.364
140,1,congruent_correct,1,0,1,1,429,1,5,1,0.429,41,0.429
142.5,1,incongruent_correct,1,1,1,2,531,3,5,1,0.531,42,0.531
145,1,congruent_correct,1,0,1,1,431,1,5,1,0.431,43,0.431
147.5,1,incongruent_correct,1,1,1,2,413,3,5,1,0.413,44,0.413
150,1,congruent_correct,1,0,1,1,384,1,5,1,0.384,45,0.384
152.5,1,congruent_correct,1,0,1,1,332,1,5,1,0.332,46,0.332
155,1,congruent_correct,1,0,1,1,400,1,5,1,0.4,47,0.4
157.5,1,incongruent_correct,1,1,1,2,558,3,5,1,0.558,48,0.558
160,1,incongruent_correct,1,1,1,2,395,3,5,1,0.395,49,0.395
162.5,1,congruent_correct,1,0,1,1,440,1,5,1,0.44,50,0.44
170,1,incongruent_correct,1,1,1,2,613,3,5,1,0.613,51,0.613
172.5,1,congruent_correct,1,0,1,1,417,1,5,1,0.417,52,0.417
175,1,congruent_correct,1,0,1,1,374,1,5,1,0.374,53,0.374
177.5,1,incongruent_correct,1,1,1,2,419,3,5,1,0.419,54,0.419
185,1,incongruent_incorrect,0,1,0,2,393,4,5,1,0.393,55,0.393
187.5,1,incongruent_correct,1,1,1,2,389,3,5,1,0.389,56,0.389
190,1,incongruent_correct,1,1,1,2,370,3,5,1,0.37,57,0.37
192.5,1,incongruent_incorrect,0,1,0,2,375,4,5,1,0.375,58,0.375
195,1,congruent_correct,1,0,1,1,420,1,5,1,0.42,59,0.42
197.5,1,congruent_correct,1,0,1,1,409,1,5,1,0.409,60,0.409
200,1,congruent_correct,1,0,1,1,414,1,5,1,0.414,61,0.414
202.5,1,incongruent_correct,1,1,1,2,403,3,5,1,0.403,62,0.403
205,1,incongruent_correct,1,1,1,2,422,3,5,1,0.422,63,0.422
207.5,1,incongruent_correct,1,1,1,2,555,3,5,1,0.555,64,0.555
215,1,incongruent_correct,1,1,1,2,434,3,5,1,0.434,65,0.434
217.5,1,incongruent_correct,1,1,1,2,493,3,5,1,0.493,66,0.493
220,1,congruent_correct,1,0,1,1,403,1,5,1,0.403,67,0.403
222.5,1,incongruent_correct,1,1,1,2,455,3,5,1,0.455,68,0.455
225,1,incongruent_correct,1,1,1,2,436,3,5,1,0.436,69,0.436
227.5,1,congruent_correct,1,0,1,1,400,1,5,1,0.4,70,0.4
230,1,congruent_correct,1,0,1,1,485,1,5,1,0.485,71,0.485
232.5,1,congruent_correct,1,0,1,1,299,1,5,1,0.299,72,0.299
235,1,incongruent_correct,1,1,1,2,383,3,5,1,0.383,73,0.383
237.5,1,congruent_correct,1,0,1,1,419,1,5,1,0.419,74,0.419
240,1,incongruent_correct,1,1,1,2,481,3,5,1,0.481,75,0.481
242.5,1,congruent_correct,1,0,1,1,516,1,5,1,0.516,76,0.516
245,1,congruent_correct,1,0,1,1,288,1,5,1,0.288,77,0.288
247.5,1,incongruent_correct,1,1,1,2,461,3,5,1,0.461,78,0.461
250,1,congruent_correct,1,0,1,1,378,1,5,1,0.378,79,0.378
252.5,1,congruent_correct,1,0,1,1,415,1,5,1,0.415,80,0.415
255,1,incongruent_correct,1,1,1,2,460,3,5,1,0.46,81,0.46
257.5,1,congruent_correct,1,0,1,1,368,1,5,1,0.368,82,0.368
270,1,incongruent_incorrect,0,1,0,2,455,4,5,1,0.455,83,0.455
272.5,1,congruent_correct,1,0,1,1,588,1,5,1,0.588,84,0.588
275,1,congruent_correct,1,0,1,1,593,1,5,1,0.593,85,0.593
277.5,1,incongruent_incorrect,0,1,0,2,389,4,5,1,0.389,86,0.389
280,1,incongruent_incorrect,0,1,0,2,393,4,5,1,0.393,87,0.393
282.5,1,congruent_correct,1,0,1,1,734,1,5,1,0.734,88,0.734
290,1,congruent_correct,1,0,1,1,628,1,5,1,0.628,89,0.628
292.5,1,incongruent_correct,1,1,1,2,569,3,5,1,0.569,90,0.569
295,1,incongruent_correct,1,1,1,2,461,3,5,1,0.461,91,0.461
297.5,1,congruent_correct,1,0,1,1,354,1,5,1,0.354,92,0.354
0,1,congruent_correct,1,0,1,1,479,1,5,2,0.479,-3,0.479
0,0,incongruent_incorrect,0,0,1,1,NaN,4,5,2,NaN,-2,NaN
2.5,1,congruent_correct,1,0,1,1,363,1,5,2,0.363,-1,0.363
10,1,incongruent_correct,1,1,1,2,410,3,5,2,0.41,0,0.41
12.5,1,incongruent_correct,1,1,1,2,461,3,5,2,0.461,1,0.461
15,1,incongruent_correct,1,1,1,2,491,3,5,2,0.491,2,0.491
17.5,1,incongruent_correct,1,1,1,2,423,3,5,2,0.423,3,0.423
25,1,congruent_incorrect,0,0,0,1,461,2,5,2,0.461,4,0.461
27.5,1,congruent_correct,1,0,1,1,827,1,5,2,0.827,5,0.827
30,1,incongruent_correct,1,1,1,2,566,3,5,2,0.566,6,0.566
32.5,1,congruent_correct,1,0,1,1,418,1,5,2,0.418,7,0.418
35,1,incongruent_correct,1,1,1,2,567,3,5,2,0.567,8,0.567
37.5,1,congruent_correct,1,0,1,1,436,1,5,2,0.436,9,0.436
40,1,congruent_correct,1,0,1,1,432,1,5,2,0.432,10,0.432
42.5,1,incongruent_correct,1,1,1,2,582,3,5,2,0.582,11,0.582
45,1,incongruent_correct,1,1,1,2,446,3,5,2,0.446,12,0.446
47.5,1,incongruent_correct,1,1,1,2,479,3,5,2,0.479,13,0.479
50,1,incongruent_correct,1,1,1,2,420,3,5,2,0.42,14,0.42
52.5,1,incongruent_correct,1,1,1,2,607,3,5,2,0.607,15,0.607
60,1,congruent_correct,1,0,1,1,574,1,5,2,0.574,16,0.574
62.5,1,congruent_correct,1,0,1,1,394,1,5,2,0.394,17,0.394
65,1,congruent_correct,1,0,1,1,543,1,5,2,0.543,18,0.543
67.5,1,congruent_correct,1,0,1,1,491,1,5,2,0.491,19,0.491
75,1,congruent_correct,1,0,1,1,529,1,5,2,0.529,20,0.529
77.5,1,congruent_correct,1,0,1,1,462,1,5,2,0.462,21,0.462
80,1,congruent_correct,1,0,1,1,387,1,5,2,0.387,22,0.387
82.5,1,incongruent_correct,1,1,1,2,514,3,5,2,0.514,23,0.514
85,1,incongruent_correct,1,1,1,2,525,3,5,2,0.525,24,0.525
87.5,1,congruent_correct,1,0,1,1,384,1,5,2,0.384,25,0.384
90,1,incongruent_correct,1,1,1,2,446,3,5,2,0.446,26,0.446
92.5,1,congruent_correct,1,0,1,1,402,1,5,2,0.402,27,0.402
95,1,congruent_correct,1,0,1,1,399,1,5,2,0.399,28,0.399
97.5,1,incongruent_correct,1,1,1,2,523,3,5,2,0.523,29,0.523
100,1,congruent_correct,1,0,1,1,424,1,5,2,0.424,30,0.424
102.5,1,incongruent_correct,1,1,1,2,437,3,5,2,0.437,31,0.437
105,1,incongruent_correct,1,1,1,2,490,3,5,2,0.49,32,0.49
107.5,1,incongruent_correct,1,1,1,2,455,3,5,2,0.455,33,0.455
110,1,congruent_correct,1,0,1,1,387,1,5,2,0.387,34,0.387
112.5,1,congruent_correct,1,0,1,1,352,1,5,2,0.352,35,0.352
120,1,congruent_correct,1,0,1,1,518,1,5,2,0.518,36,0.518
122.5,1,congruent_correct,1,0,1,1,331,1,5,2,0.331,37,0.331
125,1,congruent_correct,1,0,1,1,366,1,5,2,0.366,38,0.366
127.5,1,congruent_correct,1,0,1,1,323,1,5,2,0.323,39,0.323
130,1,congruent_correct,1,0,1,1,416,1,5,2,0.416,40,0.416
132.5,1,incongruent_correct,1,1,1,2,478,3,5,2,0.478,41,0.478
135,1,congruent_correct,1,0,1,1,394,1,5,2,0.394,42,0.394
137.5,1,incongruent_correct,1,1,1,2,606,3,5,2,0.606,43,0.606
140,1,congruent_correct,1,0,1,1,427,1,5,2,0.427,44,0.427
142.5,1,incongruent_correct,1,1,1,2,399,3,5,2,0.399,45,0.399
150,1,incongruent_correct,1,1,1,2,613,3,5,2,0.613,46,0.613
152.5,1,congruent_correct,1,0,1,1,466,1,5,2,0.466,47,0.466
155,1,incongruent_correct,1,1,1,2,511,3,5,2,0.511,48,0.511
157.5,1,incongruent_correct,1,1,1,2,491,3,5,2,0.491,49,0.491
160,1,incongruent_correct,1,1,1,2,568,3,5,2,0.568,50,0.568
162.5,1,incongruent_correct,1,1,1,2,388,3,5,2,0.388,51,0.388
165,1,incongruent_correct,1,1,1,2,427,3,5,2,0.427,52,0.427
167.5,1,incongruent_correct,1,1,1,2,334,3,5,2,0.334,53,0.334
170,1,incongruent_correct,1,1,1,2,388,3,5,2,0.388,54,0.388
172.5,1,incongruent_correct,1,1,1,2,440,3,5,2,0.44,55,0.44
175,1,congruent_incorrect,0,0,0,1,484,2,5,2,0.484,56,0.484
177.5,1,congruent_correct,1,0,1,1,418,1,5,2,0.418,57,0.418
185,1,incongruent_correct,1,1,1,2,470,3,5,2,0.47,58,0.47
187.5,1,congruent_correct,1,0,1,1,427,1,5,2,0.427,59,0.427
190,1,congruent_correct,1,0,1,1,457,1,5,2,0.457,60,0.457
192.5,1,incongruent_correct,1,1,1,2,484,3,5,2,0.484,61,0.484
195,1,incongruent_correct,1,1,1,2,561,3,5,2,0.561,62,0.561
197.5,1,incongruent_correct,1,1,1,2,422,3,5,2,0.422,63,0.422
200,1,incongruent_correct,1,1,1,2,404,3,5,2,0.404,64,0.404
202.5,1,congruent_correct,1,0,1,1,352,1,5,2,0.352,65,0.352
210,1,incongruent_correct,1,1,1,2,533,3,5,2,0.533,66,0.533
212.5,1,incongruent_correct,1,1,1,2,425,3,5,2,0.425,67,0.425
215,1,congruent_correct,1,0,1,1,431,1,5,2,0.431,68,0.431
217.5,1,incongruent_correct,1,1,1,2,547,3,5,2,0.547,69,0.547
225,1,congruent_correct,1,0,1,1,512,1,5,2,0.512,70,0.512
227.5,1,congruent_correct,1,0,1,1,317,1,5,2,0.317,71,0.317
230,1,congruent_correct,1,0,1,1,390,1,5,2,0.39,72,0.39
232.5,1,congruent_correct,1,0,1,1,376,1,5,2,0.376,73,0.376
235,1,incongruent_correct,1,1,1,2,484,3,5,2,0.484,74,0.484
237.5,1,congruent_correct,1,0,1,1,576,1,5,2,0.576,75,0.576
240,1,congruent_correct,1,0,1,1,438,1,5,2,0.438,76,0.438
242.5,1,incongruent_correct,1,1,1,2,434,3,5,2,0.434,77,0.434
245,1,incongruent_correct,1,1,1,2,383,3,5,2,0.383,78,0.383
247.5,1,congruent_correct,1,0,1,1,435,1,5,2,0.435,79,0.435
250,1,incongruent_correct,1,1,1,2,440,3,5,2,0.44,80,0.44
252.5,1,congruent_correct,1,0,1,1,453,1,5,2,0.453,81,0.453
260,1,incongruent_correct,1,1,1,2,404,3,5,2,0.404,82,0.404
262.5,1,congruent_correct,1,0,1,1,431,1,5,2,0.431,83,0.431
270,1,congruent_correct,1,0,1,1,456,1,5,2,0.456,84,0.456
272.5,1,congruent_correct,1,0,1,1,386,1,5,2,0.386,85,0.386
275,1,incongruent_correct,1,1,1,2,478,3,5,2,0.478,86,0.478
277.5,1,congruent_correct,1,0,1,1,452,1,5,2,0.452,87,0.452
285,1,congruent_correct,1,0,1,1,585,1,5,2,0.585,88,0.585
287.5,1,incongruent_correct,1,1,1,2,414,3,5,2,0.414,89,0.414
290,1,congruent_correct,1,0,1,1,394,1,5,2,0.394,90,0.394
292.5,1,incongruent_correct,1,1,1,2,440,3,5,2,0.44,91,0.44
295,1,incongruent_correct,1,1,1,2,404,3,5,2,0.404,92,0.404
297.5,1,incongruent_correct,1,1,1,2,561,3,5,2,0.561,93,0.561
0,0,congruent_incorrect,0,1,1,2,NaN,2,6,1,NaN,-4,NaN
0,1,incongruent_correct,1,1,1,2,625,3,6,1,0.625,-3,0.625
2.5,1,incongruent_correct,1,1,1,2,453,3,6,1,0.453,-2,0.453
5,1,congruent_correct,1,0,1,1,449,1,6,1,0.449,-1,0.449
7.5,1,congruent_correct,1,0,1,1,511,1,6,1,0.511,0,0.511
10,1,incongruent_correct,1,1,1,2,411,3,6,1,0.411,1,0.411
12.5,1,incongruent_correct,1,1,1,2,376,3,6,1,0.376,2,0.376
20,1,incongruent_correct,1,1,1,2,965,3,6,1,0.965,3,0.965
22.5,1,incongruent_correct,1,1,1,2,370,3,6,1,0.37,4,0.37
25,1,congruent_correct,1,0,1,1,390,1,6,1,0.39,5,0.39
27.5,1,congruent_correct,1,0,1,1,427,1,6,1,0.427,6,0.427
30,1,congruent_correct,1,0,1,1,408,1,6,1,0.408,7,0.408
32.5,1,congruent_correct,1,0,1,1,342,1,6,1,0.342,8,0.342
45,1,congruent_correct,1,0,1,1,493,1,6,1,0.493,9,0.493
47.5,1,congruent_correct,1,0,1,1,417,1,6,1,0.417,10,0.417
50,1,incongruent_correct,1,1,1,2,573,3,6,1,0.573,11,0.573
52.5,1,incongruent_correct,1,1,1,2,474,3,6,1,0.474,12,0.474
55,1,congruent_correct,1,0,1,1,487,1,6,1,0.487,13,0.487
57.5,1,incongruent_correct,1,1,1,2,483,3,6,1,0.483,14,0.483
65,1,congruent_correct,1,0,1,1,490,1,6,1,0.49,15,0.49
67.5,1,incongruent_correct,1,1,1,2,447,3,6,1,0.447,16,0.447
70,1,incongruent_correct,1,1,1,2,420,3,6,1,0.42,17,0.42
72.5,1,incongruent_correct,1,1,1,2,327,3,6,1,0.327,18,0.327
75,1,congruent_correct,1,0,1,1,437,1,6,1,0.437,19,0.437
77.5,1,congruent_correct,1,0,1,1,345,1,6,1,0.345,20,0.345
80,1,congruent_correct,1,0,1,1,340,1,6,1,0.34,21,0.34
82.5,1,congruent_correct,1,0,1,1,314,1,6,1,0.314,22,0.314
85,1,congruent_correct,1,0,1,1,346,1,6,1,0.346,23,0.346
87.5,1,incongruent_incorrect,0,1,0,2,405,4,6,1,0.405,24,0.405
90,1,incongruent_correct,1,1,1,2,464,3,6,1,0.464,25,0.464
92.5,1,congruent_correct,1,0,1,1,436,1,6,1,0.436,26,0.436
95,1,incongruent_correct,1,1,1,2,458,3,6,1,0.458,27,0.458
97.5,1,incongruent_correct,1,1,1,2,358,3,6,1,0.358,28,0.358
100,1,incongruent_correct,1,1,1,2,323,3,6,1,0.323,29,0.323
102.5,1,incongruent_correct,1,1,1,2,543,3,6,1,0.543,30,0.543
105,1,congruent_correct,1,0,1,1,468,1,6,1,0.468,31,0.468
107.5,1,congruent_correct,1,0,1,1,338,1,6,1,0.338,32,0.338
110,1,incongruent_incorrect,0,1,0,2,415,4,6,1,0.415,33,0.415
112.5,1,incongruent_correct,1,1,1,2,441,3,6,1,0.441,34,0.441
120,1,incongruent_correct,1,1,1,2,632,3,6,1,0.632,35,0.632
122.5,1,congruent_correct,1,0,1,1,468,1,6,1,0.468,36,0.468
125,1,congruent_correct,1,0,1,1,369,1,6,1,0.369,37,0.369
127.5,1,congruent_correct,1,0,1,1,391,1,6,1,0.391,38,0.391
135,1,incongruent_correct,1,1,1,2,580,3,6,1,0.58,39,0.58
137.5,1,congruent_correct,1,0,1,1,401,1,6,1,0.401,40,0.401
140,1,congruent_correct,1,0,1,1,446,1,6,1,0.446,41,0.446
142.5,1,incongruent_correct,1,1,1,2,563,3,6,1,0.563,42,0.563
145,1,congruent_correct,1,0,1,1,383,1,6,1,0.383,43,0.383
147.5,1,incongruent_correct,1,1,1,2,459,3,6,1,0.459,44,0.459
150,1,congruent_correct,1,0,1,1,408,1,6,1,0.408,45,0.408
152.5,1,congruent_correct,1,0,1,1,324,1,6,1,0.324,46,0.324
155,1,congruent_correct,1,0,1,1,417,1,6,1,0.417,47,0.417
157.5,1,incongruent_correct,1,1,1,2,525,3,6,1,0.525,48,0.525
160,1,incongruent_correct,1,1,1,2,475,3,6,1,0.475,49,0.475
162.5,1,congruent_correct,1,0,1,1,392,1,6,1,0.392,50,0.392
170,1,incongruent_correct,1,1,1,2,502,3,6,1,0.502,51,0.502
172.5,1,congruent_correct,1,0,1,1,490,1,6,1,0.49,52,0.49
175,1,congruent_correct,1,0,1,1,470,1,6,1,0.47,53,0.47
177.5,1,incongruent_correct,1,1,1,2,451,3,6,1,0.451,54,0.451
185,1,incongruent_correct,1,1,1,2,769,3,6,1,0.769,55,0.769
187.5,1,incongruent_correct,1,1,1,2,581,3,6,1,0.581,56,0.581
190,1,incongruent_correct,1,1,1,2,547,3,6,1,0.547,57,0.547
192.5,1,incongruent_correct,1,1,1,2,400,3,6,1,0.4,58,0.4
195,1,congruent_correct,1,0,1,1,620,1,6,1,0.62,59,0.62
197.5,1,congruent_correct,1,0,1,1,384,1,6,1,0.384,60,0.384
200,1,congruent_correct,1,0,1,1,366,1,6,1,0.366,61,0.366
202.5,1,incongruent_correct,1,1,1,2,465,3,6,1,0.465,62,0.465
205,1,incongruent_correct,1,1,1,2,446,3,6,1,0.446,63,0.446
207.5,1,incongruent_correct,1,1,1,2,332,3,6,1,0.332,64,0.332
215,1,incongruent_correct,1,1,1,2,545,3,6,1,0.545,65,0.545
217.5,1,incongruent_correct,1,1,1,2,478,3,6,1,0.478,66,0.478
220,1,congruent_correct,1,0,1,1,386,1,6,1,0.386,67,0.386
222.5,1,incongruent_correct,1,1,1,2,414,3,6,1,0.414,68,0.414
225,1,incongruent_correct,1,1,1,2,460,3,6,1,0.46,69,0.46
227.5,1,congruent_correct,1,0,1,1,465,1,6,1,0.465,70,0.465
230,1,congruent_correct,1,0,1,1,326,1,6,1,0.326,71,0.326
232.5,1,congruent_correct,1,0,1,1,386,1,6,1,0.386,72,0.386
235,1,incongruent_correct,1,1,1,2,486,3,6,1,0.486,73,0.486
237.5,1,congruent_correct,1,0,1,1,452,1,6,1,0.452,74,0.452
240,1,incongruent_correct,1,1,1,2,455,3,6,1,0.455,75,0.455
242.5,1,congruent_correct,1,0,1,1,460,1,6,1,0.46,76,0.46
245,1,congruent_correct,1,0,1,1,361,1,6,1,0.361,77,0.361
247.5,1,incongruent_correct,1,1,1,2,422,3,6,1,0.422,78,0.422
250,1,congruent_correct,1,0,1,1,442,1,6,1,0.442,79,0.442
252.5,1,congruent_correct,1,0,1,1,543,1,6,1,0.543,80,0.543
255,1,incongruent_correct,1,1,1,2,571,3,6,1,0.571,81,0.571
257.5,1,congruent_correct,1,0,1,1,529,1,6,1,0.529,82,0.529
270,1,incongruent_correct,1,1,1,2,607,3,6,1,0.607,83,0.607
272.5,1,congruent_correct,1,0,1,1,397,1,6,1,0.397,84,0.397
275,1,congruent_correct,1,0,1,1,377,1,6,1,0.377,85,0.377
277.5,1,incongruent_incorrect,0,1,0,2,390,4,6,1,0.39,86,0.39
280,1,incongruent_correct,1,1,1,2,554,3,6,1,0.554,87,0.554
282.5,1,congruent_correct,1,0,1,1,550,1,6,1,0.55,88,0.55
290,1,congruent_correct,1,0,1,1,614,1,6,1,0.614,89,0.614
292.5,1,incongruent_correct,1,1,1,2,506,3,6,1,0.506,90,0.506
295,1,incongruent_correct,1,1,1,2,479,3,6,1,0.479,91,0.479
297.5,1,congruent_correct,1,0,1,1,387,1,6,1,0.387,92,0.387
0,1,congruent_correct,1,0,1,1,827,1,6,2,0.827,-3,0.827
0,0,congruent_incorrect,0,0,1,1,NaN,2,6,2,NaN,-2,NaN
2.5,1,congruent_correct,1,0,1,1,389,1,6,2,0.389,-1,0.389
10,1,incongruent_correct,1,1,1,2,579,3,6,2,0.579,0,0.579
12.5,1,incongruent_correct,1,1,1,2,418,3,6,2,0.418,1,0.418
15,1,incongruent_correct,1,1,1,2,644,3,6,2,0.644,2,0.644
17.5,1,incongruent_correct,1,1,1,2,433,3,6,2,0.433,3,0.433
25,1,congruent_correct,1,0,1,1,624,1,6,2,0.624,4,0.624
27.5,1,congruent_correct,1,0,1,1,388,1,6,2,0.388,5,0.388
30,1,incongruent_correct,1,1,1,2,409,3,6,2,0.409,6,0.409
32.5,1,congruent_correct,1,0,1,1,430,1,6,2,0.43,7,0.43
35,1,incongruent_correct,1,1,1,2,459,3,6,2,0.459,8,0.459
37.5,1,congruent_correct,1,0,1,1,367,1,6,2,0.367,9,0.367
40,1,congruent_correct,1,0,1,1,371,1,6,2,0.371,10,0.371
42.5,1,incongruent_correct,1,1,1,2,440,3,6,2,0.44,11,0.44
45,1,incongruent_correct,1,1,1,2,308,3,6,2,0.308,12,0.308
47.5,1,incongruent_incorrect,0,1,0,2,377,4,6,2,0.377,13,0.377
50,1,incongruent_correct,1,1,1,2,510,3,6,2,0.51,14,0.51
52.5,1,incongruent_correct,1,1,1,2,557,3,6,2,0.557,15,0.557
60,1,congruent_correct,1,0,1,1,584,1,6,2,0.584,16,0.584
62.5,1,congruent_correct,1,0,1,1,422,1,6,2,0.422,17,0.422
65,1,congruent_correct,1,0,1,1,417,1,6,2,0.417,18,0.417
67.5,1,congruent_correct,1,0,1,1,382,1,6,2,0.382,19,0.382
75,1,congruent_correct,1,0,1,1,531,1,6,2,0.531,20,0.531
77.5,1,congruent_correct,1,0,1,1,377,1,6,2,0.377,21,0.377
80,1,congruent_correct,1,0,1,1,349,1,6,2,0.349,22,0.349
82.5,1,incongruent_correct,1,1,1,2,425,3,6,2,0.425,23,0.425
85,1,incongruent_correct,1,1,1,2,423,3,6,2,0.423,24,0.423
87.5,1,congruent_correct,1,0,1,1,348,1,6,2,0.348,25,0.348
90,1,incongruent_correct,1,1,1,2,401,3,6,2,0.401,26,0.401
92.5,1,congruent_correct,1,0,1,1,388,1,6,2,0.388,27,0.388
95,1,congruent_correct,1,0,1,1,346,1,6,2,0.346,28,0.346
97.5,1,incongruent_correct,1,1,1,2,494,3,6,2,0.494,29,0.494
100,1,congruent_correct,1,0,1,1,413,1,6,2,0.413,30,0.413
102.5,1,incongruent_correct,1,1,1,2,432,3,6,2,0.432,31,0.432
105,1,incongruent_incorrect,0,1,0,2,389,4,6,2,0.389,32,0.389
107.5,1,incongruent_correct,1,1,1,2,544,3,6,2,0.544,33,0.544
110,1,congruent_correct,1,0,1,1,359,1,6,2,0.359,34,0.359
112.5,1,congruent_correct,1,0,1,1,417,1,6,2,0.417,35,0.417
120,1,congruent_correct,1,0,1,1,496,1,6,2,0.496,36,0.496
122.5,1,congruent_correct,1,0,1,1,389,1,6,2,0.389,37,0.389
125,1,congruent_correct,1,0,1,1,490,1,6,2,0.49,38,0.49
127.5,1,congruent_correct,1,0,1,1,366,1,6,2,0.366,39,0.366
130,1,congruent_correct,1,0,1,1,354,1,6,2,0.354,40,0.354
132.5,1,incongruent_correct,1,1,1,2,439,3,6,2,0.439,41,0.439
135,1,congruent_correct,1,0,1,1,420,1,6,2,0.42,42,0.42
137.5,1,incongruent_correct,1,1,1,2,553,3,6,2,0.553,43,0.553
140,1,congruent_correct,1,0,1,1,494,1,6,2,0.494,44,0.494
142.5,1,incongruent_correct,1,1,1,2,378,3,6,2,0.378,45,0.378
150,1,incongruent_correct,1,1,1,2,576,3,6,2,0.576,46,0.576
152.5,1,congruent_correct,1,0,1,1,429,1,6,2,0.429,47,0.429
155,1,incongruent_correct,1,1,1,2,521,3,6,2,0.521,48,0.521
157.5,1,incongruent_correct,1,1,1,2,471,3,6,2,0.471,49,0.471
160,1,incongruent_incorrect,0,1,0,2,371,4,6,2,0.371,50,0.371
162.5,1,incongruent_correct,1,1,1,2,567,3,6,2,0.567,51,0.567
165,1,incongruent_correct,1,1,1,2,491,3,6,2,0.491,52,0.491
167.5,1,incongruent_correct,1,1,1,2,432,3,6,2,0.432,53,0.432
170,1,incongruent_correct,1,1,1,2,502,3,6,2,0.502,54,0.502
172.5,1,incongruent_correct,1,1,1,2,394,3,6,2,0.394,55,0.394
175,1,congruent_correct,1,0,1,1,398,1,6,2,0.398,56,0.398
177.5,1,congruent_correct,1,0,1,1,363,1,6,2,0.363,57,0.363
185,1,incongruent_correct,1,1,1,2,658,3,6,2,0.658,58,0.658
187.5,1,congruent_correct,1,0,1,1,462,1,6,2,0.462,59,0.462
190,1,congruent_correct,1,0,1,1,379,1,6,2,0.379,60,0.379
192.5,1,incongruent_correct,1,1,1,2,574,3,6,2,0.574,61,0.574
195,1,incongruent_correct,1,1,1,2,580,3,6,2,0.58,62,0.58
197.5,1,incongruent_correct,1,1,1,2,424,3,6,2,0.424,63,0.424
200,1,incongruent_correct,1,1,1,2,445,3,6,2,0.445,64,0.445
202.5,1,congruent_correct,1,0,1,1,426,1,6,2,0.426,65,0.426
210,1,incongruent_correct,1,1,1,2,559,3,6,2,0.559,66,0.559
212.5,1,incongruent_correct,1,1,1,2,397,3,6,2,0.397,67,0.397
215,1,congruent_correct,1,0,1,1,354,1,6,2,0.354,68,0.354
217.5,1,incongruent_correct,1,1,1,2,407,3,6,2,0.407,69,0.407
225,1,congruent_correct,1,0,1,1,419,1,6,2,0.419,70,0.419
227.5,1,congruent_correct,1,0,1,1,392,1,6,2,0.392,71,0.392
230,1,congruent_correct,1,0,1,1,453,1,6,2,0.453,72,0.453
232.5,1,congruent_correct,1,0,1,1,377,1,6,2,0.377,73,0.377
235,1,incongruent_incorrect,0,1,0,2,342,4,6,2,0.342,74,0.342
237.5,1,congruent_correct,1,0,1,1,451,1,6,2,0.451,75,0.451
240,1,congruent_correct,1,0,1,1,416,1,6,2,0.416,76,0.416
242.5,1,incongruent_correct,1,1,1,2,516,3,6,2,0.516,77,0.516
245,1,incongruent_correct,1,1,1,2,497,3,6,2,0.497,78,0.497
247.5,1,congruent_correct,1,0,1,1,502,1,6,2,0.502,79,0.502
250,1,incongruent_correct,1,1,1,2,363,3,6,2,0.363,80,0.363
252.5,1,congruent_correct,1,0,1,1,410,1,6,2,0.41,81,0.41
260,1,incongruent_correct,1,1,1,2,468,3,6,2,0.468,82,0.468
262.5,1,congruent_correct,1,0,1,1,393,1,6,2,0.393,83,0.393
270,1,congruent_correct,1,0,1,1,567,1,6,2,0.567,84,0.567
272.5,1,congruent_correct,1,0,1,1,459,1,6,2,0.459,85,0.459
275,1,incongruent_correct,1,1,1,2,553,3,6,2,0.553,86,0.553
277.5,1,congruent_correct,1,0,1,1,526,1,6,2,0.526,87,0.526
285,1,congruent_correct,1,0,1,1,492,1,6,2,0.492,88,0.492
287.5,1,incongruent_correct,1,1,1,2,480,3,6,2,0.48,89,0.48
290,1,congruent_correct,1,0,1,1,381,1,6,2,0.381,90,0.381
292.5,1,incongruent_correct,1,1,1,2,450,3,6,2,0.45,91,0.45
295,1,incongruent_correct,1,1,1,2,558,3,6,2,0.558,92,0.558
297.5,1,incongruent_correct,1,1,1,2,364,3,6,2,0.364,93,0.364
0,1,incongruent_correct,1,1,1,2,586,3,7,1,0.586,-4,0.586
0,0,incongruent_incorrect,0,1,1,2,NaN,4,7,1,NaN,-3,NaN
2.5,1,incongruent_correct,1,1,1,2,413,3,7,1,0.413,-2,0.413
5,1,congruent_incorrect,0,0,0,1,801,2,7,1,0.801,-1,0.801
7.5,1,congruent_correct,1,0,1,1,454,1,7,1,0.454,0,0.454
10,1,incongruent_correct,1,1,1,2,547,3,7,1,0.547,1,0.547
12.5,1,incongruent_correct,1,1,1,2,447,3,7,1,0.447,2,0.447
20,1,incongruent_correct,1,1,1,2,436,3,7,1,0.436,3,0.436
22.5,1,incongruent_correct,1,1,1,2,369,3,7,1,0.369,4,0.369
25,1,congruent_correct,1,0,1,1,413,1,7,1,0.413,5,0.413
27.5,1,congruent_correct,1,0,1,1,395,1,7,1,0.395,6,0.395
30,1,congruent_correct,1,0,1,1,479,1,7,1,0.479,7,0.479
32.5,1,congruent_correct,1,0,1,1,388,1,7,1,0.388,8,0.388
45,1,congruent_correct,1,0,1,1,482,1,7,1,0.482,9,0.482
47.5,1,congruent_correct,1,0,1,1,376,1,7,1,0.376,10,0.376
50,1,incongruent_correct,1,1,1,2,603,3,7,1,0.603,11,0.603
52.5,1,incongruent_correct,1,1,1,2,561,3,7,1,0.561,12,0.561
55,1,congruent_incorrect,0,0,0,1,556,2,7,1,0.556,13,0.556
57.5,1,incongruent_correct,1,1,1,2,682,3,7,1,0.682,14,0.682
65,1,congruent_correct,1,0,1,1,1049,1,7,1,1.049,15,1.049
67.5,1,incongruent_correct,1,1,1,2,549,3,7,1,0.549,16,0.549
70,1,incongruent_correct,1,1,1,2,514,3,7,1,0.514,17,0.514
72.5,1,incongruent_correct,1,1,1,2,463,3,7,1,0.463,18,0.463
75,1,congruent_correct,1,0,1,1,475,1,7,1,0.475,19,0.475
77.5,1,congruent_correct,1,0,1,1,480,1,7,1,0.48,20,0.48
80,1,congruent_correct,1,0,1,1,532,1,7,1,0.532,21,0.532
82.5,1,congruent_correct,1,0,1,1,521,1,7,1,0.521,22,0.521
85,1,congruent_correct,1,0,1,1,396,1,7,1,0.396,23,0.396
87.5,1,incongruent_correct,1,1,1,2,659,3,7,1,0.659,24,0.659
90,1,incongruent_correct,1,1,1,2,559,3,7,1,0.559,25,0.559
92.5,1,congruent_correct,1,0,1,1,443,1,7,1,0.443,26,0.443
95,1,incongruent_correct,1,1,1,2,568,3,7,1,0.568,27,0.568
97.5,1,incongruent_correct,1,1,1,2,509,3,7,1,0.509,28,0.509
100,1,incongruent_correct,1,1,1,2,714,3,7,1,0.714,29,0.714
102.5,1,incongruent_correct,1,1,1,2,573,3,7,1,0.573,30,0.573
105,1,congruent_correct,1,0,1,1,435,1,7,1,0.435,31,0.435
107.5,1,congruent_correct,1,0,1,1,496,1,7,1,0.496,32,0.496
110,1,incongruent_correct,1,1,1,2,549,3,7,1,0.549,33,0.549
112.5,1,incongruent_correct,1,1,1,2,520,3,7,1,0.52,34,0.52
120,1,incongruent_correct,1,1,1,2,622,3,7,1,0.622,35,0.622
122.5,1,congruent_correct,1,0,1,1,507,1,7,1,0.507,36,0.507
125,1,congruent_correct,1,0,1,1,488,1,7,1,0.488,37,0.488
127.5,1,congruent_correct,1,0,1,1,541,1,7,1,0.541,38,0.541
135,1,incongruent_correct,1,1,1,2,602,3,7,1,0.602,39,0.602
137.5,1,congruent_correct,1,0,1,1,496,1,7,1,0.496,40,0.496
140,1,congruent_correct,1,0,1,1,477,1,7,1,0.477,41,0.477
142.5,1,incongruent_correct,1,1,1,2,545,3,7,1,0.545,42,0.545
145,1,congruent_correct,1,0,1,1,478,1,7,1,0.478,43,0.478
147.5,1,incongruent_correct,1,1,1,2,539,3,7,1,0.539,44,0.539
150,1,congruent_correct,1,0,1,1,559,1,7,1,0.559,45,0.559
152.5,1,congruent_correct,1,0,1,1,451,1,7,1,0.451,46,0.451
155,1,congruent_correct,1,0,1,1,458,1,7,1,0.458,47,0.458
157.5,1,incongruent_correct,1,1,1,2,565,3,7,1,0.565,48,0.565
160,1,incongruent_correct,1,1,1,2,514,3,7,1,0.514,49,0.514
162.5,1,congruent_correct,1,0,1,1,470,1,7,1,0.47,50,0.47
170,1,incongruent_correct,1,1,1,2,669,3,7,1,0.669,51,0.669
172.5,1,congruent_correct,1,0,1,1,466,1,7,1,0.466,52,0.466
175,1,congruent_correct,1,0,1,1,518,1,7,1,0.518,53,0.518
177.5,1,incongruent_correct,1,1,1,2,537,3,7,1,0.537,54,0.537
185,1,incongruent_correct,1,1,1,2,560,3,7,1,0.56,55,0.56
187.5,1,incongruent_correct,1,1,1,2,508,3,7,1,0.508,56,0.508
190,1,incongruent_correct,1,1,1,2,480,3,7,1,0.48,57,0.48
192.5,1,incongruent_correct,1,1,1,2,445,3,7,1,0.445,58,0.445
195,1,congruent_correct,1,0,1,1,675,1,7,1,0.675,59,0.675
197.5,1,congruent_correct,1,0,1,1,503,1,7,1,0.503,60,0.503
200,1,congruent_correct,1,0,1,1,484,1,7,1,0.484,61,0.484
202.5,1,incongruent_correct,1,1,1,2,475,3,7,1,0.475,62,0.475
205,1,incongruent_correct,1,1,1,2,533,3,7,1,0.533,63,0.533
207.5,1,incongruent_correct,1,1,1,2,474,3,7,1,0.474,64,0.474
215,1,incongruent_correct,1,1,1,2,583,3,7,1,0.583,65,0.583
217.5,1,incongruent_correct,1,1,1,2,476,3,7,1,0.476,66,0.476
220,1,congruent_correct,1,0,1,1,713,1,7,1,0.713,67,0.713
222.5,1,incongruent_correct,1,1,1,2,590,3,7,1,0.59,68,0.59
225,1,incongruent_correct,1,1,1,2,442,3,7,1,0.442,69,0.442
227.5,1,congruent_correct,1,0,1,1,479,1,7,1,0.479,70,0.479
230,1,congruent_correct,1,0,1,1,525,1,7,1,0.525,71,0.525
232.5,1,congruent_correct,1,0,1,1,465,1,7,1,0.465,72,0.465
235,1,incongruent_correct,1,1,1,2,534,3,7,1,0.534,73,0.534
237.5,1,congruent_correct,1,0,1,1,466,1,7,1,0.466,74,0.466
240,1,incongruent_correct,1,1,1,2,630,3,7,1,0.63,75,0.63
242.5,1,congruent_correct,1,0,1,1,443,1,7,1,0.443,76,0.443
245,1,congruent_correct,1,0,1,1,416,1,7,1,0.416,77,0.416
247.5,1,incongruent_correct,1,1,1,2,525,3,7,1,0.525,78,0.525
250,1,congruent_correct,1,0,1,1,432,1,7,1,0.432,79,0.432
252.5,1,congruent_correct,1,0,1,1,462,1,7,1,0.462,80,0.462
255,1,incongruent_correct,1,1,1,2,690,3,7,1,0.69,81,0.69
257.5,1,congruent_correct,1,0,1,1,462,1,7,1,0.462,82,0.462
270,1,incongruent_correct,1,1,1,2,630,3,7,1,0.63,83,0.63
272.5,1,congruent_correct,1,0,1,1,444,1,7,1,0.444,84,0.444
275,1,congruent_correct,1,0,1,1,439,1,7,1,0.439,85,0.439
277.5,1,incongruent_correct,1,1,1,2,517,3,7,1,0.517,86,0.517
280,1,incongruent_correct,1,1,1,2,513,3,7,1,0.513,87,0.513
282.5,1,congruent_correct,1,0,1,1,437,1,7,1,0.437,88,0.437
290,1,congruent_correct,1,0,1,1,546,1,7,1,0.546,89,0.546
292.5,1,incongruent_correct,1,1,1,2,568,3,7,1,0.568,90,0.568
295,1,incongruent_correct,1,1,1,2,486,3,7,1,0.486,91,0.486
297.5,1,congruent_correct,1,0,1,1,561,1,7,1,0.561,92,0.561
0,1,congruent_correct,1,0,1,1,450,1,7,2,0.45,-3,0.45
0,0,incongruent_incorrect,0,0,1,1,NaN,4,7,2,NaN,-2,NaN
2.5,1,congruent_correct,1,0,1,1,439,1,7,2,0.439,-1,0.439
10,1,incongruent_correct,1,1,1,2,572,3,7,2,0.572,0,0.572
12.5,1,incongruent_correct,1,1,1,2,482,3,7,2,0.482,1,0.482
15,1,incongruent_correct,1,1,1,2,518,3,7,2,0.518,2,0.518
17.5,1,incongruent_correct,1,1,1,2,402,3,7,2,0.402,3,0.402
25,1,congruent_correct,1,0,1,1,609,1,7,2,0.609,4,0.609
27.5,1,congruent_correct,1,0,1,1,453,1,7,2,0.453,5,0.453
30,1,incongruent_correct,1,1,1,2,515,3,7,2,0.515,6,0.515
32.5,1,congruent_correct,1,0,1,1,574,1,7,2,0.574,7,0.574
35,1,incongruent_correct,1,1,1,2,483,3,7,2,0.483,8,0.483
37.5,1,congruent_correct,1,0,1,1,415,1,7,2,0.415,9,0.415
40,1,congruent_correct,1,0,1,1,461,1,7,2,0.461,10,0.461
42.5,1,incongruent_correct,1,1,1,2,513,3,7,2,0.513,11,0.513
45,1,incongruent_correct,1,1,1,2,485,3,7,2,0.485,12,0.485
47.5,1,incongruent_correct,1,1,1,2,483,3,7,2,0.483,13,0.483
50,1,incongruent_correct,1,1,1,2,502,3,7,2,0.502,14,0.502
52.5,1,incongruent_correct,1,1,1,2,747,3,7,2,0.747,15,0.747
60,1,congruent_correct,1,0,1,1,570,1,7,2,0.57,16,0.57
62.5,1,congruent_correct,1,0,1,1,462,1,7,2,0.462,17,0.462
65,1,congruent_correct,1,0,1,1,436,1,7,2,0.436,18,0.436
67.5,1,congruent_correct,1,0,1,1,395,1,7,2,0.395,19,0.395
75,1,congruent_correct,1,0,1,1,541,1,7,2,0.541,20,0.541
77.5,1,congruent_correct,1,0,1,1,466,1,7,2,0.466,21,0.466
80,1,congruent_correct,1,0,1,1,542,1,7,2,0.542,22,0.542
82.5,1,incongruent_correct,1,1,1,2,619,3,7,2,0.619,23,0.619
85,1,incongruent_correct,1,1,1,2,495,3,7,2,0.495,24,0.495
87.5,1,congruent_correct,1,0,1,1,484,1,7,2,0.484,25,0.484
90,1,incongruent_correct,1,1,1,2,521,3,7,2,0.521,26,0.521
92.5,1,congruent_correct,1,0,1,1,605,1,7,2,0.605,27,0.605
95,1,congruent_correct,1,0,1,1,514,1,7,2,0.514,28,0.514
97.5,1,incongruent_correct,1,1,1,2,439,3,7,2,0.439,29,0.439
100,1,congruent_correct,1,0,1,1,443,1,7,2,0.443,30,0.443
102.5,1,incongruent_correct,1,1,1,2,520,3,7,2,0.52,31,0.52
105,1,incongruent_correct,1,1,1,2,491,3,7,2,0.491,32,0.491
107.5,1,incongruent_correct,1,1,1,2,416,3,7,2,0.416,33,0.416
110,1,congruent_correct,1,0,1,1,349,1,7,2,0.349,34,0.349
112.5,1,congruent_correct,1,0,1,1,499,1,7,2,0.499,35,0.499
120,1,congruent_correct,1,0,1,1,631,1,7,2,0.631,36,0.631
122.5,1,congruent_correct,1,0,1,1,388,1,7,2,0.388,37,0.388
125,1,congruent_correct,1,0,1,1,432,1,7,2,0.432,38,0.432
127.5,1,congruent_correct,1,0,1,1,404,1,7,2,0.404,39,0.404
130,1,congruent_correct,1,0,1,1,505,1,7,2,0.505,40,0.505
132.5,1,incongruent_correct,1,1,1,2,494,3,7,2,0.494,41,0.494
135,1,congruent_correct,1,0,1,1,371,1,7,2,0.371,42,0.371
137.5,1,incongruent_correct,1,1,1,2,519,3,7,2,0.519,43,0.519
140,1,congruent_correct,1,0,1,1,475,1,7,2,0.475,44,0.475
142.5,1,incongruent_correct,1,1,1,2,552,3,7,2,0.552,45,0.552
150,1,incongruent_correct,1,1,1,2,534,3,7,2,0.534,46,0.534
152.5,1,congruent_correct,1,0,1,1,402,1,7,2,0.402,47,0.402
155,1,incongruent_correct,1,1,1,2,527,3,7,2,0.527,48,0.527
157.5,1,incongruent_correct,1,1,1,2,411,3,7,2,0.411,49,0.411
160,1,incongruent_correct,1,1,1,2,496,3,7,2,0.496,50,0.496
162.5,1,incongruent_correct,1,1,1,2,403,3,7,2,0.403,51,0.403
165,1,incongruent_correct,1,1,1,2,425,3,7,2,0.425,52,0.425
167.5,1,incongruent_correct,1,1,1,2,478,3,7,2,0.478,53,0.478
170,1,incongruent_correct,1,1,1,2,483,3,7,2,0.483,54,0.483
172.5,1,incongruent_correct,1,1,1,2,519,3,7,2,0.519,55,0.519
175,1,congruent_incorrect,0,0,0,1,540,2,7,2,0.54,56,0.54
177.5,1,congruent_correct,1,0,1,1,696,1,7,2,0.696,57,0.696
185,1,incongruent_correct,1,1,1,2,711,3,7,2,0.711,58,0.711
187.5,1,congruent_correct,1,0,1,1,522,1,7,2,0.522,59,0.522
190,1,congruent_correct,1,0,1,1,519,1,7,2,0.519,60,0.519
192.5,1,incongruent_correct,1,1,1,2,476,3,7,2,0.476,61,0.476
195,1,incongruent_correct,1,1,1,2,505,3,7,2,0.505,62,0.505
197.5,1,incongruent_correct,1,1,1,2,470,3,7,2,0.47,63,0.47
200,1,incongruent_correct,1,1,1,2,474,3,7,2,0.474,64,0.474
202.5,1,congruent_correct,1,0,1,1,441,1,7,2,0.441,65,0.441
210,1,incongruent_correct,1,1,1,2,638,3,7,2,0.638,66,0.638
212.5,1,incongruent_correct,1,1,1,2,498,3,7,2,0.498,67,0.498
215,1,congruent_correct,1,0,1,1,486,1,7,2,0.486,68,0.486
217.5,1,incongruent_correct,1,1,1,2,450,3,7,2,0.45,69,0.45
225,1,congruent_correct,1,0,1,1,913,1,7,2,0.913,70,0.913
227.5,1,congruent_correct,1,0,1,1,421,1,7,2,0.421,71,0.421
230,1,congruent_correct,1,0,1,1,482,1,7,2,0.482,72,0.482
232.5,1,congruent_correct,1,0,1,1,446,1,7,2,0.446,73,0.446
235,1,incongruent_correct,1,1,1,2,483,3,7,2,0.483,74,0.483
237.5,1,congruent_correct,1,0,1,1,493,1,7,2,0.493,75,0.493
240,1,congruent_correct,1,0,1,1,459,1,7,2,0.459,76,0.459
242.5,1,incongruent_correct,1,1,1,2,553,3,7,2,0.553,77,0.553
245,1,incongruent_correct,1,1,1,2,557,3,7,2,0.557,78,0.557
247.5,1,congruent_correct,1,0,1,1,594,1,7,2,0.594,79,0.594
250,1,incongruent_correct,1,1,1,2,496,3,7,2,0.496,80,0.496
252.5,1,congruent_correct,1,0,1,1,645,1,7,2,0.645,81,0.645
260,1,incongruent_correct,1,1,1,2,553,3,7,2,0.553,82,0.553
262.5,1,congruent_correct,1,0,1,1,414,1,7,2,0.414,83,0.414
270,1,congruent_correct,1,0,1,1,564,1,7,2,0.564,84,0.564
272.5,1,congruent_correct,1,0,1,1,393,1,7,2,0.393,85,0.393
275,1,incongruent_correct,1,1,1,2,709,3,7,2,0.709,86,0.709
277.5,1,congruent_correct,1,0,1,1,729,1,7,2,0.729,87,0.729
285,1,congruent_correct,1,0,1,1,608,1,7,2,0.608,88,0.608
287.5,1,incongruent_correct,1,1,1,2,550,3,7,2,0.55,89,0.55
290,1,congruent_correct,1,0,1,1,626,1,7,2,0.626,90,0.626
292.5,1,incongruent_correct,1,1,1,2,471,3,7,2,0.471,91,0.471
295,1,incongruent_correct,1,1,1,2,411,3,7,2,0.411,92,0.411
297.5,1,incongruent_correct,1,1,1,2,458,3,7,2,0.458,93,0.458
0,0,congruent_incorrect,0,1,0,2,NaN,2,8,1,NaN,-4,NaN
0,1,incongruent_incorrect,0,1,0,2,793,4,8,1,0.793,-3,0.793
2.5,1,incongruent_incorrect,0,1,0,2,542,4,8,1,0.542,-2,0.542
5,1,congruent_correct,1,0,1,1,931,1,8,1,0.931,-1,0.931
7.5,1,congruent_correct,1,0,1,1,966,1,8,1,0.966,0,0.966
10,1,incongruent_correct,1,1,1,2,764,3,8,1,0.764,1,0.764
12.5,1,incongruent_correct,1,1,1,2,713,3,8,1,0.713,2,0.713
20,1,incongruent_correct,1,1,1,2,662,3,8,1,0.662,3,0.662
22.5,1,incongruent_correct,1,1,1,2,547,3,8,1,0.547,4,0.547
25,1,congruent_correct,1,0,1,1,784,1,8,1,0.784,5,0.784
27.5,1,congruent_correct,1,0,1,1,492,1,8,1,0.492,6,0.492
30,1,congruent_correct,1,0,1,1,649,1,8,1,0.649,7,0.649
32.5,1,congruent_correct,1,0,1,1,693,1,8,1,0.693,8,0.693
45,1,congruent_correct,1,0,1,1,1021,1,8,1,1.021,9,1.021
47.5,1,congruent_correct,1,0,1,1,434,1,8,1,0.434,10,0.434
50,1,incongruent_correct,1,1,1,2,767,3,8,1,0.767,11,0.767
52.5,1,incongruent_correct,1,1,1,2,667,3,8,1,0.667,12,0.667
55,1,congruent_correct,1,0,1,1,682,1,8,1,0.682,13,0.682
57.5,1,incongruent_correct,1,1,1,2,780,3,8,1,0.78,14,0.78
65,1,congruent_correct,1,0,1,1,571,1,8,1,0.571,15,0.571
67.5,1,incongruent_correct,1,1,1,2,679,3,8,1,0.679,16,0.679
70,1,incongruent_correct,1,1,1,2,995,3,8,1,0.995,17,0.995
72.5,1,incongruent_correct,1,1,1,2,577,3,8,1,0.577,18,0.577
75,1,congruent_correct,1,0,1,1,878,1,8,1,0.878,19,0.878
77.5,1,congruent_correct,1,0,1,1,513,1,8,1,0.513,20,0.513
80,1,congruent_correct,1,0,1,1,663,1,8,1,0.663,21,0.663
82.5,1,congruent_correct,1,0,1,1,566,1,8,1,0.566,22,0.566
85,1,congruent_correct,1,0,1,1,758,1,8,1,0.758,23,0.758
87.5,1,incongruent_correct,1,1,1,2,875,3,8,1,0.875,24,0.875
90,1,incongruent_correct,1,1,1,2,737,3,8,1,0.737,25,0.737
92.5,1,congruent_correct,1,0,1,1,654,1,8,1,0.654,26,0.654
95,1,incongruent_correct,1,1,1,2,643,3,8,1,0.643,27,0.643
97.5,1,incongruent_correct,1,1,1,2,1150,3,8,1,1.15,28,1.15
100,1,incongruent_correct,1,1,1,2,620,3,8,1,0.62,29,0.62
102.5,1,incongruent_correct,1,1,1,2,424,3,8,1,0.424,30,0.424
105,1,congruent_correct,1,0,1,1,516,1,8,1,0.516,31,0.516
107.5,1,congruent_correct,1,0,1,1,386,1,8,1,0.386,32,0.386
110,1,incongruent_correct,1,1,1,2,679,3,8,1,0.679,33,0.679
112.5,1,incongruent_correct,1,1,1,2,867,3,8,1,0.867,34,0.867
120,1,incongruent_correct,1,1,1,2,1081,3,8,1,1.081,35,1.081
122.5,1,congruent_correct,1,0,1,1,694,1,8,1,0.694,36,0.694
125,1,congruent_correct,1,0,1,1,715,1,8,1,0.715,37,0.715
127.5,1,congruent_correct,1,0,1,1,784,1,8,1,0.784,38,0.784
135,1,incongruent_correct,1,1,1,2,685,3,8,1,0.685,39,0.685
137.5,1,congruent_correct,1,0,1,1,585,1,8,1,0.585,40,0.585
140,1,congruent_correct,1,0,1,1,630,1,8,1,0.63,41,0.63
142.5,1,incongruent_correct,1,1,1,2,620,3,8,1,0.62,42,0.62
145,1,congruent_correct,1,0,1,1,761,1,8,1,0.761,43,0.761
147.5,1,incongruent_correct,1,1,1,2,581,3,8,1,0.581,44,0.581
150,1,congruent_correct,1,0,1,1,570,1,8,1,0.57,45,0.57
152.5,1,congruent_correct,1,0,1,1,564,1,8,1,0.564,46,0.564
155,1,congruent_correct,1,0,1,1,562,1,8,1,0.562,47,0.562
157.5,1,incongruent_correct,1,1,1,2,752,3,8,1,0.752,48,0.752
160,1,incongruent_correct,1,1,1,2,596,3,8,1,0.596,49,0.596
162.5,1,congruent_correct,1,0,1,1,847,1,8,1,0.847,50,0.847
170,1,incongruent_incorrect,NaN,1,0,2,NaN,4,8,1,NaN,51,NaN
172.5,1,congruent_correct,1,0,1,1,770,1,8,1,0.77,52,0.77
175,1,congruent_correct,1,0,1,1,576,1,8,1,0.576,53,0.576
177.5,1,incongruent_correct,1,1,1,2,557,3,8,1,0.557,54,0.557
185,1,incongruent_incorrect,0,1,0,2,546,4,8,1,0.546,55,0.546
187.5,1,incongruent_correct,1,1,1,2,616,3,8,1,0.616,56,0.616
190,1,incongruent_correct,1,1,1,2,675,3,8,1,0.675,57,0.675
192.5,1,incongruent_correct,1,1,1,2,695,3,8,1,0.695,58,0.695
195,1,congruent_correct,1,0,1,1,749,1,8,1,0.749,59,0.749
197.5,1,congruent_correct,1,0,1,1,634,1,8,1,0.634,60,0.634
200,1,congruent_correct,1,0,1,1,814,1,8,1,0.814,61,0.814
202.5,1,incongruent_correct,1,1,1,2,816,3,8,1,0.816,62,0.816
205,1,incongruent_correct,1,1,1,2,687,3,8,1,0.687,63,0.687
207.5,1,incongruent_correct,1,1,1,2,653,3,8,1,0.653,64,0.653
215,1,incongruent_correct,1,1,1,2,914,3,8,1,0.914,65,0.914
217.5,1,incongruent_correct,1,1,1,2,654,3,8,1,0.654,66,0.654
220,1,congruent_correct,1,0,1,1,700,1,8,1,0.7,67,0.7
222.5,1,incongruent_correct,1,1,1,2,744,3,8,1,0.744,68,0.744
225,1,incongruent_correct,1,1,1,2,852,3,8,1,0.852,69,0.852
227.5,1,congruent_correct,1,0,1,1,778,1,8,1,0.778,70,0.778
230,1,congruent_correct,1,0,1,1,630,1,8,1,0.63,71,0.63
232.5,1,congruent_correct,1,0,1,1,738,1,8,1,0.738,72,0.738
235,1,incongruent_correct,1,1,1,2,702,3,8,1,0.702,73,0.702
237.5,1,congruent_correct,1,0,1,1,709,1,8,1,0.709,74,0.709
240,1,incongruent_correct,1,1,1,2,625,3,8,1,0.625,75,0.625
242.5,1,congruent_correct,1,0,1,1,764,1,8,1,0.764,76,0.764
245,1,congruent_correct,1,0,1,1,461,1,8,1,0.461,77,0.461
247.5,1,incongruent_correct,1,1,1,2,1015,3,8,1,1.015,78,1.015
250,1,congruent_correct,1,0,1,1,827,1,8,1,0.827,79,0.827
252.5,1,congruent_correct,1,0,1,1,720,1,8,1,0.72,80,0.72
255,1,incongruent_correct,1,1,1,2,837,3,8,1,0.837,81,0.837
257.5,1,congruent_correct,1,0,1,1,616,1,8,1,0.616,82,0.616
270,1,incongruent_correct,1,1,1,2,920,3,8,1,0.92,83,0.92
272.5,1,congruent_correct,1,0,1,1,637,1,8,1,0.637,84,0.637
275,1,congruent_correct,1,0,1,1,1233,1,8,1,1.233,85,1.233
277.5,1,incongruent_correct,1,1,1,2,1143,3,8,1,1.143,86,1.143
280,1,incongruent_correct,1,1,1,2,668,3,8,1,0.668,87,0.668
282.5,1,congruent_correct,1,0,1,1,1184,1,8,1,1.184,88,1.184
290,1,congruent_correct,1,0,1,1,814,1,8,1,0.814,89,0.814
292.5,1,incongruent_correct,1,1,1,2,802,3,8,1,0.802,90,0.802
295,1,incongruent_correct,1,1,1,2,719,3,8,1,0.719,91,0.719
297.5,1,congruent_correct,1,0,1,1,627,1,8,1,0.627,92,0.627
0,1,congruent_correct,1,0,1,1,665,1,8,2,0.665,-3,0.665
0,0,congruent_incorrect,0,0,1,1,NaN,2,8,2,NaN,-2,NaN
2.5,1,congruent_correct,1,0,1,1,858,1,8,2,0.858,-1,0.858
10,1,incongruent_correct,1,1,1,2,689,3,8,2,0.689,0,0.689
12.5,1,incongruent_correct,1,1,1,2,599,3,8,2,0.599,1,0.599
15,1,incongruent_correct,1,1,1,2,674,3,8,2,0.674,2,0.674
17.5,1,incongruent_correct,1,1,1,2,647,3,8,2,0.647,3,0.647
25,1,congruent_correct,1,0,1,1,645,1,8,2,0.645,4,0.645
27.5,1,congruent_correct,1,0,1,1,834,1,8,2,0.834,5,0.834
30,1,incongruent_correct,1,1,1,2,725,3,8,2,0.725,6,0.725
32.5,1,congruent_correct,1,0,1,1,675,1,8,2,0.675,7,0.675
35,1,incongruent_correct,1,1,1,2,697,3,8,2,0.697,8,0.697
37.5,1,congruent_correct,1,0,1,1,676,1,8,2,0.676,9,0.676
40,1,congruent_correct,1,0,1,1,777,1,8,2,0.777,10,0.777
42.5,1,incongruent_incorrect,0,1,0,2,638,4,8,2,0.638,11,0.638
45,1,incongruent_incorrect,NaN,1,0,2,NaN,4,8,2,NaN,12,NaN
47.5,1,incongruent_correct,1,1,1,2,736,3,8,2,0.736,13,0.736
50,1,incongruent_correct,1,1,1,2,540,3,8,2,0.54,14,0.54
52.5,1,incongruent_correct,1,1,1,2,560,3,8,2,0.56,15,0.56
60,1,congruent_correct,1,0,1,1,710,1,8,2,0.71,16,0.71
62.5,1,congruent_correct,1,0,1,1,636,1,8,2,0.636,17,0.636
65,1,congruent_correct,1,0,1,1,649,1,8,2,0.649,18,0.649
67.5,1,congruent_correct,1,0,1,1,540,1,8,2,0.54,19,0.54
75,1,congruent_correct,1,0,1,1,730,1,8,2,0.73,20,0.73
77.5,1,congruent_correct,1,0,1,1,855,1,8,2,0.855,21,0.855
80,1,congruent_correct,1,0,1,1,420,1,8,2,0.42,22,0.42
82.5,1,incongruent_correct,1,1,1,2,550,3,8,2,0.55,23,0.55
85,1,incongruent_correct,1,1,1,2,805,3,8,2,0.805,24,0.805
87.5,1,congruent_correct,1,0,1,1,544,1,8,2,0.544,25,0.544
90,1,incongruent_correct,1,1,1,2,654,3,8,2,0.654,26,0.654
92.5,1,congruent_correct,1,0,1,1,547,1,8,2,0.547,27,0.547
95,1,congruent_correct,1,0,1,1,481,1,8,2,0.481,28,0.481
97.5,1,incongruent_incorrect,0,1,0,2,444,4,8,2,0.444,29,0.444
100,1,congruent_correct,1,0,1,1,465,1,8,2,0.465,30,0.465
102.5,1,incongruent_correct,1,1,1,2,604,3,8,2,0.604,31,0.604
105,1,incongruent_correct,1,1,1,2,650,3,8,2,0.65,32,0.65
107.5,1,incongruent_correct,1,1,1,2,968,3,8,2,0.968,33,0.968
110,1,congruent_correct,1,0,1,1,1092,1,8,2,1.092,34,1.092
112.5,1,congruent_correct,1,0,1,1,608,1,8,2,0.608,35,0.608
120,1,congruent_correct,1,0,1,1,1038,1,8,2,1.038,36,1.038
122.5,1,congruent_correct,1,0,1,1,522,1,8,2,0.522,37,0.522
125,1,congruent_correct,1,0,1,1,486,1,8,2,0.486,38,0.486
127.5,1,congruent_correct,1,0,1,1,996,1,8,2,0.996,39,0.996
130,1,congruent_correct,1,0,1,1,617,1,8,2,0.617,40,0.617
132.5,1,incongruent_correct,1,1,1,2,966,3,8,2,0.966,41,0.966
135,1,congruent_correct,1,0,1,1,716,1,8,2,0.716,42,0.716
137.5,1,incongruent_correct,1,1,1,2,663,3,8,2,0.663,43,0.663
140,1,congruent_correct,1,0,1,1,835,1,8,2,0.835,44,0.835
142.5,1,incongruent_correct,1,1,1,2,641,3,8,2,0.641,45,0.641
150,1,incongruent_correct,1,1,1,2,655,3,8,2,0.655,46,0.655
152.5,1,congruent_correct,1,0,1,1,562,1,8,2,0.562,47,0.562
155,1,incongruent_correct,1,1,1,2,566,3,8,2,0.566,48,0.566
157.5,1,incongruent_correct,1,1,1,2,524,3,8,2,0.524,49,0.524
160,1,incongruent_correct,1,1,1,2,578,3,8,2,0.578,50,0.578
162.5,1,incongruent_correct,1,1,1,2,478,3,8,2,0.478,51,0.478
165,1,incongruent_correct,1,1,1,2,602,3,8,2,0.602,52,0.602
167.5,1,incongruent_correct,1,1,1,2,503,3,8,2,0.503,53,0.503
170,1,incongruent_correct,1,1,1,2,395,3,8,2,0.395,54,0.395
172.5,1,incongruent_correct,1,1,1,2,448,3,8,2,0.448,55,0.448
175,1,congruent_correct,1,0,1,1,533,1,8,2,0.533,56,0.533
177.5,1,congruent_correct,1,0,1,1,441,1,8,2,0.441,57,0.441
185,1,incongruent_correct,1,1,1,2,728,3,8,2,0.728,58,0.728
187.5,1,congruent_correct,1,0,1,1,524,1,8,2,0.524,59,0.524
190,1,congruent_correct,1,0,1,1,608,1,8,2,0.608,60,0.608
192.5,1,incongruent_correct,1,1,1,2,653,3,8,2,0.653,61,0.653
195,1,incongruent_correct,1,1,1,2,570,3,8,2,0.57,62,0.57
197.5,1,incongruent_correct,1,1,1,2,509,3,8,2,0.509,63,0.509
200,1,incongruent_correct,1,1,1,2,540,3,8,2,0.54,64,0.54
202.5,1,congruent_correct,1,0,1,1,752,1,8,2,0.752,65,0.752
210,1,incongruent_correct,1,1,1,2,933,3,8,2,0.933,66,0.933
212.5,1,incongruent_incorrect,0,1,0,2,938,4,8,2,0.938,67,0.938
215,1,congruent_correct,1,0,1,1,605,1,8,2,0.605,68,0.605
217.5,1,incongruent_correct,1,1,1,2,668,3,8,2,0.668,69,0.668
225,1,congruent_correct,1,0,1,1,778,1,8,2,0.778,70,0.778
227.5,1,congruent_correct,1,0,1,1,799,1,8,2,0.799,71,0.799
230,1,congruent_correct,1,0,1,1,636,1,8,2,0.636,72,0.636
232.5,1,congruent_correct,1,0,1,1,1024,1,8,2,1.024,73,1.024
235,1,incongruent_correct,1,1,1,2,788,3,8,2,0.788,74,0.788
237.5,1,congruent_correct,1,0,1,1,721,1,8,2,0.721,75,0.721
240,1,congruent_correct,1,0,1,1,790,1,8,2,0.79,76,0.79
242.5,1,incongruent_correct,1,1,1,2,987,3,8,2,0.987,77,0.987
245,1,incongruent_correct,1,1,1,2,918,3,8,2,0.918,78,0.918
247.5,1,congruent_correct,1,0,1,1,562,1,8,2,0.562,79,0.562
250,1,incongruent_correct,1,1,1,2,792,3,8,2,0.792,80,0.792
252.5,1,congruent_correct,1,0,1,1,759,1,8,2,0.759,81,0.759
260,1,incongruent_correct,1,1,1,2,732,3,8,2,0.732,82,0.732
262.5,1,congruent_correct,1,0,1,1,857,1,8,2,0.857,83,0.857
270,1,congruent_correct,1,0,1,1,958,1,8,2,0.958,84,0.958
272.5,1,congruent_correct,1,0,1,1,466,1,8,2,0.466,85,0.466
275,1,incongruent_correct,1,1,1,2,599,3,8,2,0.599,86,0.599
277.5,1,congruent_correct,1,0,1,1,716,1,8,2,0.716,87,0.716
285,1,congruent_correct,1,0,1,1,985,1,8,2,0.985,88,0.985
287.5,1,incongruent_correct,1,1,1,2,590,3,8,2,0.59,89,0.59
290,1,congruent_correct,1,0,1,1,532,1,8,2,0.532,90,0.532
292.5,1,incongruent_incorrect,0,1,0,2,407,4,8,2,0.407,91,0.407
295,1,incongruent_correct,1,1,1,2,669,3,8,2,0.669,92,0.669
297.5,1,incongruent_incorrect,NaN,1,0,2,NaN,4,8,2,NaN,93,NaN
0,0,congruent_incorrect,0,1,0,2,NaN,2,9,1,NaN,-4,NaN
0,1,incongruent_incorrect,0,1,0,2,559,4,9,1,0.559,-3,0.559
2.5,1,incongruent_correct,1,1,1,2,883,3,9,1,0.883,-2,0.883
5,1,congruent_correct,1,0,1,1,513,1,9,1,0.513,-1,0.513
7.5,1,congruent_correct,1,0,1,1,485,1,9,1,0.485,0,0.485
10,1,incongruent_correct,1,1,1,2,554,3,9,1,0.554,1,0.554
12.5,1,incongruent_correct,1,1,1,2,503,3,9,1,0.503,2,0.503
20,1,incongruent_correct,1,1,1,2,908,3,9,1,0.908,3,0.908
22.5,1,incongruent_correct,1,1,1,2,654,3,9,1,0.654,4,0.654
25,1,congruent_correct,1,0,1,1,451,1,9,1,0.451,5,0.451
27.5,1,congruent_correct,1,0,1,1,625,1,9,1,0.625,6,0.625
30,1,congruent_correct,1,0,1,1,485,1,9,1,0.485,7,0.485
32.5,1,congruent_correct,1,0,1,1,419,1,9,1,0.419,8,0.419
45,1,congruent_correct,1,0,1,1,538,1,9,1,0.538,9,0.538
47.5,1,congruent_correct,1,0,1,1,551,1,9,1,0.551,10,0.551
50,1,incongruent_correct,1,1,1,2,603,3,9,1,0.603,11,0.603
52.5,1,incongruent_correct,1,1,1,2,545,3,9,1,0.545,12,0.545
55,1,congruent_correct,1,0,1,1,773,1,9,1,0.773,13,0.773
57.5,1,incongruent_correct,1,1,1,2,561,3,9,1,0.561,14,0.561
65,1,congruent_correct,1,0,1,1,719,1,9,1,0.719,15,0.719
67.5,1,incongruent_correct,1,1,1,2,429,3,9,1,0.429,16,0.429
70,1,incongruent_correct,1,1,1,2,441,3,9,1,0.441,17,0.441
72.5,1,incongruent_correct,1,1,1,2,542,3,9,1,0.542,18,0.542
75,1,congruent_correct,1,0,1,1,602,1,9,1,0.602,19,0.602
77.5,1,congruent_correct,1,0,1,1,503,1,9,1,0.503,20,0.503
80,1,congruent_correct,1,0,1,1,627,1,9,1,0.627,21,0.627
82.5,1,congruent_correct,1,0,1,1,417,1,9,1,0.417,22,0.417
85,1,congruent_correct,1,0,1,1,541,1,9,1,0.541,23,0.541
87.5,1,incongruent_correct,1,1,1,2,538,3,9,1,0.538,24,0.538
90,1,incongruent_incorrect,0,1,0,2,581,4,9,1,0.581,25,0.581
92.5,1,congruent_correct,1,0,1,1,610,1,9,1,0.61,26,0.61
95,1,incongruent_correct,1,1,1,2,576,3,9,1,0.576,27,0.576
97.5,1,incongruent_correct,1,1,1,2,452,3,9,1,0.452,28,0.452
100,1,incongruent_correct,1,1,1,2,465,3,9,1,0.465,29,0.465
102.5,1,incongruent_correct,1,1,1,2,837,3,9,1,0.837,30,0.837
105,1,congruent_correct,1,0,1,1,546,1,9,1,0.546,31,0.546
107.5,1,congruent_correct,1,0,1,1,487,1,9,1,0.487,32,0.487
110,1,incongruent_correct,1,1,1,2,571,3,9,1,0.571,33,0.571
112.5,1,incongruent_correct,1,1,1,2,407,3,9,1,0.407,34,0.407
120,1,incongruent_correct,1,1,1,2,830,3,9,1,0.83,35,0.83
122.5,1,congruent_correct,1,0,1,1,458,1,9,1,0.458,36,0.458
125,1,congruent_correct,1,0,1,1,711,1,9,1,0.711,37,0.711
127.5,1,congruent_correct,1,0,1,1,396,1,9,1,0.396,38,0.396
135,1,incongruent_correct,1,1,1,2,723,3,9,1,0.723,39,0.723
137.5,1,congruent_correct,1,0,1,1,454,1,9,1,0.454,40,0.454
140,1,congruent_correct,1,0,1,1,364,1,9,1,0.364,41,0.364
142.5,1,incongruent_correct,1,1,1,2,575,3,9,1,0.575,42,0.575
145,1,congruent_correct,1,0,1,1,581,1,9,1,0.581,43,0.581
147.5,1,incongruent_correct,1,1,1,2,442,3,9,1,0.442,44,0.442
150,1,congruent_correct,1,0,1,1,597,1,9,1,0.597,45,0.597
152.5,1,congruent_correct,1,0,1,1,515,1,9,1,0.515,46,0.515
155,1,congruent_correct,1,0,1,1,527,1,9,1,0.527,47,0.527
157.5,1,incongruent_correct,1,1,1,2,852,3,9,1,0.852,48,0.852
160,1,incongruent_correct,1,1,1,2,456,3,9,1,0.456,49,0.456
162.5,1,congruent_correct,1,0,1,1,596,1,9,1,0.596,50,0.596
170,1,incongruent_correct,1,1,1,2,723,3,9,1,0.723,51,0.723
172.5,1,congruent_correct,1,0,1,1,449,1,9,1,0.449,52,0.449
175,1,congruent_correct,1,0,1,1,404,1,9,1,0.404,53,0.404
177.5,1,incongruent_correct,1,1,1,2,641,3,9,1,0.641,54,0.641
185,1,incongruent_correct,1,1,1,2,719,3,9,1,0.719,55,0.719
187.5,1,incongruent_correct,1,1,1,2,316,3,9,1,0.316,56,0.316
190,1,incongruent_correct,1,1,1,2,568,3,9,1,0.568,57,0.568
192.5,1,incongruent_correct,1,1,1,2,581,3,9,1,0.581,58,0.581
195,1,congruent_correct,1,0,1,1,538,1,9,1,0.538,59,0.538
197.5,1,congruent_correct,1,0,1,1,431,1,9,1,0.431,60,0.431
200,1,congruent_correct,1,0,1,1,460,1,9,1,0.46,61,0.46
202.5,1,incongruent_correct,1,1,1,2,720,3,9,1,0.72,62,0.72
205,1,incongruent_correct,1,1,1,2,469,3,9,1,0.469,63,0.469
207.5,1,incongruent_correct,1,1,1,2,857,3,9,1,0.857,64,0.857
215,1,incongruent_correct,1,1,1,2,959,3,9,1,0.959,65,0.959
217.5,1,incongruent_correct,1,1,1,2,548,3,9,1,0.548,66,0.548
220,1,congruent_correct,1,0,1,1,536,1,9,1,0.536,67,0.536
222.5,1,incongruent_correct,1,1,1,2,468,3,9,1,0.468,68,0.468
225,1,incongruent_correct,1,1,1,2,481,3,9,1,0.481,69,0.481
227.5,1,congruent_correct,1,0,1,1,1166,1,9,1,1.166,70,1.166
230,1,congruent_correct,1,0,1,1,403,1,9,1,0.403,71,0.403
232.5,1,congruent_correct,1,0,1,1,480,1,9,1,0.48,72,0.48
235,1,incongruent_correct,1,1,1,2,685,3,9,1,0.685,73,0.685
237.5,1,congruent_correct,1,0,1,1,434,1,9,1,0.434,74,0.434
240,1,incongruent_correct,1,1,1,2,502,3,9,1,0.502,75,0.502
242.5,1,congruent_correct,1,0,1,1,482,1,9,1,0.482,76,0.482
245,1,congruent_correct,1,0,1,1,487,1,9,1,0.487,77,0.487
247.5,1,incongruent_correct,1,1,1,2,611,3,9,1,0.611,78,0.611
250,1,congruent_correct,1,0,1,1,433,1,9,1,0.433,79,0.433
252.5,1,congruent_correct,1,0,1,1,581,1,9,1,0.581,80,0.581
255,1,incongruent_correct,1,1,1,2,705,3,9,1,0.705,81,0.705
257.5,1,congruent_correct,1,0,1,1,558,1,9,1,0.558,82,0.558
270,1,incongruent_correct,1,1,1,2,989,3,9,1,0.989,83,0.989
272.5,1,congruent_correct,1,0,1,1,435,1,9,1,0.435,84,0.435
275,1,congruent_correct,1,0,1,1,575,1,9,1,0.575,85,0.575
277.5,1,incongruent_correct,1,1,1,2,755,3,9,1,0.755,86,0.755
280,1,incongruent_correct,1,1,1,2,600,3,9,1,0.6,87,0.6
282.5,1,congruent_correct,1,0,1,1,557,1,9,1,0.557,88,0.557
290,1,congruent_correct,1,0,1,1,763,1,9,1,0.763,89,0.763
292.5,1,incongruent_correct,1,1,1,2,599,3,9,1,0.599,90,0.599
295,1,incongruent_correct,1,1,1,2,444,3,9,1,0.444,91,0.444
297.5,1,congruent_correct,1,0,1,1,521,1,9,1,0.521,92,0.521
0,1,congruent_correct,1,0,1,1,750,1,9,2,0.75,-3,0.75
0,0,congruent_incorrect,0,0,1,1,NaN,2,9,2,NaN,-2,NaN
2.5,1,congruent_correct,1,0,1,1,379,1,9,2,0.379,-1,0.379
10,1,incongruent_correct,1,1,1,2,816,3,9,2,0.816,0,0.816
12.5,1,incongruent_correct,1,1,1,2,557,3,9,2,0.557,1,0.557
15,1,incongruent_correct,1,1,1,2,427,3,9,2,0.427,2,0.427
17.5,1,incongruent_correct,1,1,1,2,495,3,9,2,0.495,3,0.495
25,1,congruent_correct,1,0,1,1,876,1,9,2,0.876,4,0.876
27.5,1,congruent_correct,1,0,1,1,393,1,9,2,0.393,5,0.393
30,1,incongruent_correct,1,1,1,2,662,3,9,2,0.662,6,0.662
32.5,1,congruent_correct,1,0,1,1,603,1,9,2,0.603,7,0.603
35,1,incongruent_correct,1,1,1,2,511,3,9,2,0.511,8,0.511
37.5,1,congruent_correct,1,0,1,1,507,1,9,2,0.507,9,0.507
40,1,congruent_correct,1,0,1,1,481,1,9,2,0.481,10,0.481
42.5,1,incongruent_correct,1,1,1,2,661,3,9,2,0.661,11,0.661
45,1,incongruent_correct,1,1,1,2,514,3,9,2,0.514,12,0.514
47.5,1,incongruent_correct,1,1,1,2,549,3,9,2,0.549,13,0.549
50,1,incongruent_incorrect,0,1,0,2,572,4,9,2,0.572,14,0.572
52.5,1,incongruent_correct,1,1,1,2,439,3,9,2,0.439,15,0.439
60,1,congruent_correct,1,0,1,1,1117,1,9,2,1.117,16,1.117
62.5,1,congruent_correct,1,0,1,1,426,1,9,2,0.426,17,0.426
65,1,congruent_correct,1,0,1,1,503,1,9,2,0.503,18,0.503
67.5,1,congruent_correct,1,0,1,1,523,1,9,2,0.523,19,0.523
75,1,congruent_correct,1,0,1,1,617,1,9,2,0.617,20,0.617
77.5,1,congruent_correct,1,0,1,1,574,1,9,2,0.574,21,0.574
80,1,congruent_correct,1,0,1,1,570,1,9,2,0.57,22,0.57
82.5,1,incongruent_correct,1,1,1,2,448,3,9,2,0.448,23,0.448
85,1,incongruent_correct,1,1,1,2,516,3,9,2,0.516,24,0.516
87.5,1,congruent_correct,1,0,1,1,585,1,9,2,0.585,25,0.585
90,1,incongruent_correct,1,1,1,2,630,3,9,2,0.63,26,0.63
92.5,1,congruent_correct,1,0,1,1,867,1,9,2,0.867,27,0.867
95,1,congruent_correct,1,0,1,1,439,1,9,2,0.439,28,0.439
97.5,1,incongruent_correct,1,1,1,2,1082,3,9,2,1.082,29,1.082
100,1,congruent_correct,1,0,1,1,424,1,9,2,0.424,30,0.424
102.5,1,incongruent_correct,1,1,1,2,621,3,9,2,0.621,31,0.621
105,1,incongruent_correct,1,1,1,2,617,3,9,2,0.617,32,0.617
107.5,1,incongruent_correct,1,1,1,2,622,3,9,2,0.622,33,0.622
110,1,congruent_correct,1,0,1,1,490,1,9,2,0.49,34,0.49
112.5,1,congruent_correct,1,0,1,1,375,1,9,2,0.375,35,0.375
120,1,congruent_correct,1,0,1,1,630,1,9,2,0.63,36,0.63
122.5,1,congruent_correct,1,0,1,1,555,1,9,2,0.555,37,0.555
125,1,congruent_correct,1,0,1,1,390,1,9,2,0.39,38,0.39
127.5,1,congruent_correct,1,0,1,1,483,1,9,2,0.483,39,0.483
130,1,congruent_correct,1,0,1,1,368,1,9,2,0.368,40,0.368
132.5,1,incongruent_correct,1,1,1,2,556,3,9,2,0.556,41,0.556
135,1,congruent_correct,1,0,1,1,466,1,9,2,0.466,42,0.466
137.5,1,incongruent_correct,1,1,1,2,509,3,9,2,0.509,43,0.509
140,1,congruent_correct,1,0,1,1,643,1,9,2,0.643,44,0.643
142.5,1,incongruent_correct,1,1,1,2,638,3,9,2,0.638,45,0.638
150,1,incongruent_correct,1,1,1,2,1221,3,9,2,1.221,46,1.221
152.5,1,congruent_correct,1,0,1,1,467,1,9,2,0.467,47,0.467
155,1,incongruent_incorrect,0,1,0,2,710,4,9,2,0.71,48,0.71
157.5,1,incongruent_correct,1,1,1,2,644,3,9,2,0.644,49,0.644
160,1,incongruent_correct,1,1,1,2,496,3,9,2,0.496,50,0.496
162.5,1,incongruent_correct,1,1,1,2,605,3,9,2,0.605,51,0.605
165,1,incongruent_correct,1,1,1,2,616,3,9,2,0.616,52,0.616
167.5,1,incongruent_correct,1,1,1,2,566,3,9,2,0.566,53,0.566
170,1,incongruent_correct,1,1,1,2,513,3,9,2,0.513,54,0.513
172.5,1,incongruent_correct,1,1,1,2,502,3,9,2,0.502,55,0.502
175,1,congruent_correct,1,0,1,1,667,1,9,2,0.667,56,0.667
177.5,1,congruent_correct,1,0,1,1,408,1,9,2,0.408,57,0.408
185,1,incongruent_correct,1,1,1,2,790,3,9,2,0.79,58,0.79
187.5,1,congruent_correct,1,0,1,1,556,1,9,2,0.556,59,0.556
190,1,congruent_correct,1,0,1,1,505,1,9,2,0.505,60,0.505
192.5,1,incongruent_correct,1,1,1,2,533,3,9,2,0.533,61,0.533
195,1,incongruent_correct,1,1,1,2,537,3,9,2,0.537,62,0.537
